WAVELENGTH	NORM_INTENSITY
199.97546	0
200.17692	0
200.37839	0
200.57989	0
200.7814	0
200.98293	0
201.18448	0
201.38605	0
201.58764	0
201.78925	0
201.99087	0
202.19252	0
202.39418	0
202.59586	0
202.79756	0
202.99928	0
203.20102	0
203.40278	0
203.60455	0
203.80635	0
204.00816	0
204.20999	0
204.41184	0
204.61371	0
204.8156	0
205.0175	0
205.21943	0
205.42137	0
205.62334	0
205.82532	0
206.02732	0
206.22934	0
206.43137	0
206.63343	0
206.83551	0
207.0376	0
207.23971	0
207.44184	0
207.64399	0
207.84616	0
208.04835	0
208.25055	0
208.45278	0
208.65502	0
208.85728	0
209.05956	0
209.26186	0
209.46418	0
209.66651	0
209.86887	0
210.07124	0
210.27363	0
210.47604	0
210.67847	0
210.88092	0
211.08338	0
211.28587	0
211.48837	0
211.69089	0
211.89343	0
212.09599	0
212.29857	0
212.50117	0
212.70378	0
212.90641	0
213.10907	0
213.31174	0
213.51442	0
213.71713	0
213.91986	0
214.1226	0
214.32537	0
214.52815	0
214.73095	0
214.93376	0
215.1366	0
215.33946	0
215.54233	0
215.74522	0
215.94813	0
216.15106	0
216.35401	0
216.55698	0
216.75996	0
216.96297	0
217.16599	0
217.36903	0
217.57209	0
217.77517	0
217.97826	0
218.18138	0
218.38451	0
218.58766	0
218.79083	0
218.99402	0
219.19722	0
219.40045	0
219.60369	0
219.80695	0
220.01023	0
220.21353	0
220.41685	0
220.62018	0
220.82354	0
221.02691	0
221.2303	0
221.43371	0
221.63713	0
221.84058	0
222.04404	0
222.24753	0
222.45103	0
222.65455	0
222.85808	0
223.06164	0
223.26521	0
223.46881	0
223.67242	0
223.87605	0
224.07969	0
224.28336	0
224.48704	0
224.69075	0
224.89447	0
225.0982	0
225.30196	0
225.50574	0
225.70953	0
225.91334	0
226.11717	0
226.32102	0
226.52489	0
226.72878	0
226.93268	0
227.1366	0
227.34054	0
227.5445	0
227.74848	0
227.95247	0
228.15649	0
228.36052	0
228.56457	0
228.76863	0
228.97272	0
229.17683	0
229.38095	0
229.58509	0
229.78925	0
229.99343	0
230.19762	0
230.40183	0
230.60607	0
230.81032	0
231.01459	0
231.21887	0
231.42318	0
231.6275	0
231.83184	0
232.0362	0
232.24058	0
232.44497	0
232.64939	0
232.85382	0
233.05827	0
233.26274	0
233.46722	0
233.67173	0
233.87625	0
234.08079	0
234.28535	0
234.48993	0
234.69452	0
234.89914	0
235.10377	0
235.30842	0
235.51309	0
235.71777	0
235.92248	0
236.1272	0
236.33194	0
236.5367	0
236.74147	0
236.94627	0
237.15108	0
237.35591	0
237.56076	0
237.76563	0
237.97051	0
238.17541	0
238.38033	0
238.58527	0
238.79023	0
238.9952	0
239.2002	0
239.40521	0
239.61024	0
239.81529	0
240.02035	0
240.22543	0
240.43053	0
240.63565	0
240.84079	0
241.04595	0
241.25112	0
241.45631	0
241.66152	0
241.86675	0
242.07199	0
242.27726	0
242.48254	0
242.68784	0
242.89315	0
243.09849	0
243.30384	0
243.50921	0
243.7146	0
243.92001	0
244.12543	0
244.33087	0
244.53633	0
244.74181	0
244.94731	0
245.15282	0
245.35836	0
245.56391	0
245.76948	0
245.97506	0
246.18067	0
246.38629	0
246.59193	0
246.79758	0
247.00326	0
247.20895	0
247.41466	0
247.62039	0
247.82614	0
248.03191	0
248.23769	0
248.44349	0
248.64931	0
248.85514	0
249.061	0
249.26687	0
249.47276	0
249.67867	0
249.88459	0
250.09054	0
250.2965	0
250.50248	0
250.70847	0
250.91449	0
251.12052	0
251.32657	0
251.53264	0
251.73872	0
251.94483	0
252.15095	0
252.35709	0
252.56325	0
252.76942	0
252.97561	0
253.18182	0
253.38805	0
253.5943	0
253.80056	0
254.00684	0
254.21314	0
254.41946	0
254.62579	0
254.83214	0
255.03851	0
255.2449	0
255.45131	0
255.65773	0
255.86417	0
256.07063	0
256.27711	0
256.4836	0
256.69011	0
256.89664	0
257.10319	0
257.30975	0
257.51634	0
257.72294	0
257.92955	0
258.13619	0
258.34284	0
258.54951	0
258.7562	0
258.96291	0
259.16963	0
259.37637	0
259.58313	0
259.78991	0
259.9967	0
260.20351	0
260.41034	0
260.61719	0
260.82406	0
261.03094	0
261.23784	0
261.44476	0
261.65169	0
261.85864	0
262.06561	0
262.2726	0
262.47961	0
262.68663	0
262.89367	0
263.10073	0
263.30781	0
263.5149	0
263.72201	0
263.92914	0
264.13629	0
264.34345	0
264.55063	0
264.75783	0
264.96505	0
265.17228	0
265.37953	0
265.5868	0
265.79409	0
266.00139	0
266.20871	0
266.41605	0
266.62341	0
266.83078	0
267.03817	0
267.24558	0
267.45301	0
267.66045	0
267.86791	0
268.07539	0
268.28289	0
268.4904	0
268.69793	0
268.90548	0
269.11305	0
269.32063	0
269.52823	0
269.73585	0
269.94349	0
270.15114	0
270.35881	0
270.5665	0
270.77421	0
270.98193	0
271.18967	0
271.39743	0
271.60521	0
271.813	0
272.02081	0
272.22864	0
272.43648	0
272.64434	0
272.85222	0
273.06012	0
273.26804	0
273.47597	0
273.68392	0
273.89188	0
274.09987	0
274.30787	0
274.51589	0
274.72392	0
274.93198	0
275.14005	0
275.34814	0
275.55624	0
275.76437	0
275.97251	0
276.18066	0
276.38884	0
276.59703	0
276.80524	0
277.01347	0
277.22171	0
277.42997	0
277.63825	0
277.84655	0
278.05486	0
278.26319	0
278.47154	0
278.6799	0
278.88829	0
279.09669	0
279.3051	0
279.51354	0
279.72199	0
279.93046	0
280.13894	0
280.34745	0
280.55597	0
280.7645	0
280.97306	0
281.18163	0
281.39022	0
281.59883	0
281.80745	0
282.01609	0
282.22475	0
282.43342	0
282.64212	0
282.85083	0
283.05955	0
283.2683	0
283.47706	0
283.68584	0
283.89463	0
284.10345	0
284.31228	0
284.52112	0
284.72999	0
284.93887	0
285.14777	0
285.35668	0
285.56562	0
285.77457	0
285.98353	0
286.19252	0
286.40152	0
286.61054	0
286.81957	0
287.02863	0
287.2377	0
287.44678	0
287.65589	0
287.86501	0
288.07415	0
288.2833	0
288.49248	0
288.70167	0
288.91087	0
289.1201	0
289.32934	0
289.53859	0
289.74787	0
289.95716	0
290.16647	0
290.3758	0
290.58514	0
290.7945	0
291.00388	0
291.21327	0
291.42268	0
291.63211	0
291.84156	0
292.05102	0
292.2605	0
292.47	0
292.67951	0
292.88904	0
293.09859	0
293.30815	0
293.51773	0
293.72733	0
293.93695	0
294.14658	0
294.35623	0
294.56589	0
294.77558	0
294.98528	0
295.195	0
295.40473	0
295.61448	0
295.82425	0
296.03403	0
296.24384	0
296.45366	0
296.66349	0
296.87334	0
297.08321	0
297.2931	0
297.503	0
297.71292	0
297.92286	0
298.13282	0
298.34279	0
298.55277	0
298.76278	0
298.9728	0
299.18284	0
299.3929	0
299.60297	0
299.81306	0
300.02316	0
300.23329	0
300.44343	0
300.65358	0
300.86376	0
301.07395	0
301.28416	0
301.49438	0
301.70462	0
301.91488	0
302.12515	0
302.33544	0
302.54575	0
302.75608	0
302.96642	0
303.17678	0
303.38715	0
303.59755	0
303.80796	0
304.01838	0
304.22882	0
304.43928	0
304.64976	0
304.86025	0
305.07076	0
305.28129	0
305.49183	0
305.70239	0
305.91297	0
306.12356	0
306.33417	0
306.5448	0
306.75545	0
306.96611	0
307.17678	0
307.38748	0
307.59819	0
307.80892	0
308.01966	0
308.23042	0
308.4412	0
308.65199	0
308.8628	0
309.07363	0
309.28448	0
309.49534	0
309.70622	0
309.91711	0
310.12802	0
310.33895	0
310.54989	0
310.76085	0
310.97183	0
311.18283	0
311.39384	0
311.60487	0
311.81591	0
312.02697	0
312.23805	0
312.44914	0
312.66025	0
312.87138	0
313.08253	0
313.29369	0
313.50486	0
313.71606	0
313.92727	0
314.1385	0
314.34974	0
314.561	0
314.77228	0
314.98357	0
315.19488	0
315.40621	0
315.61755	0
315.82891	0
316.04029	0
316.25168	0
316.46309	0
316.67452	0
316.88596	0
317.09742	0
317.3089	0
317.52039	0
317.7319	0
317.94342	0
318.15496	0
318.36652	0
318.5781	0
318.78969	0
319.0013	0
319.21292	0
319.42456	0
319.63622	0
319.84789	0
320.05958	0
320.27129	0
320.48302	0
320.69476	0
320.90651	0
321.11828	0
321.33007	0
321.54188	0
321.7537	0
321.96554	0
322.1774	0
322.38927	0
322.60116	0
322.81306	0
323.02498	0
323.23692	0
323.44887	0
323.66084	0
323.87283	0
324.08483	0
324.29685	0
324.50889	0
324.72094	0
324.93301	0
325.14509	0
325.35719	0
325.56931	0
325.78145	0
325.9936	0
326.20576	0
326.41795	0
326.63015	0
326.84236	0
327.0546	0
327.26684	0
327.47911	0
327.69139	0
327.90369	0
328.116	0
328.32833	0
328.54068	0
328.75304	0
328.96542	0
329.17782	0
329.39023	0
329.60266	0
329.8151	0
330.02756	0
330.24004	0
330.45253	0
330.66504	0
330.87757	0
331.09011	0
331.30267	0
331.51525	0
331.72784	0
331.94045	0
332.15307	0
332.36571	0
332.57837	0
332.79104	0
333.00373	0
333.21643	0
333.42915	0
333.64189	0
333.85464	0
334.06741	0
334.2802	0
334.493	0
334.70582	0
334.91866	0
335.13151	0
335.34437	0
335.55726	0
335.77016	0
335.98307	0
336.196	0
336.40895	0
336.62192	0
336.8349	0
337.04789	0
337.26091	0
337.47394	0
337.68698	0
337.90004	0
338.11312	0
338.32621	0
338.53932	0
338.75245	0
338.96559	0
339.17875	0
339.39192	0
339.60511	0
339.81832	0
340.03154	0
340.24478	0
340.45804	0
340.67131	0
340.88459	0
341.0979	0
341.31122	0
341.52455	0
341.7379	0
341.95127	0
342.16465	0
342.37805	0
342.59147	0
342.8049	0
343.01835	0
343.23181	0
343.44529	0
343.65879	0
343.8723	0
344.08583	0
344.29937	0
344.51293	0
344.72651	0
344.9401	0
345.15371	0
345.36733	0
345.58097	0
345.79463	0
346.0083	0
346.22199	0
346.43569	0
346.64941	0
346.86315	0
347.0769	0
347.29067	0
347.50446	0
347.71826	0
347.93207	0
348.1459	0
348.35975	0
348.57362	0
348.78749	0
349.00139	0
349.2153	0
349.42923	0
349.64317	0
349.85713	0
350.07111	0
350.2851	0
350.49911	0
350.71313	0
350.92717	0
351.14122	0
351.3553	0
351.56938	0
351.78349	0
351.9976	0
352.21174	0
352.42589	0
352.64005	0
352.85424	0
353.06844	0
353.28265	0
353.49688	0
353.71112	0
353.92539	0
354.13966	0
354.35396	0
354.56827	0
354.78259	0
354.99693	0
355.21129	0
355.42566	0
355.64005	0
355.85445	0
356.06887	0
356.28331	0
356.49776	0
356.71223	0
356.92671	0
357.14121	0
357.35572	0
357.57025	0
357.7848	0
357.99936	0
358.21394	0
358.42853	0
358.64314	0
358.85777	0
359.07241	0
359.28706	0
359.50173	0
359.71642	0
359.93113	0
360.14585	0
360.36058	0
360.57533	0
360.7901	0
361.00488	0
361.21968	0
361.43449	0
361.64932	0
361.86417	0
362.07903	0
362.29391	0
362.5088	0
362.72371	0
362.93863	0
363.15357	0
363.36852	0
363.58349	0
363.79848	0
364.01348	0
364.2285	0
364.44353	0
364.65858	0
364.87365	0
365.08873	0
365.30382	0
365.51894	0
365.73406	0
365.94921	0
366.16436	0
366.37954	0
366.59473	0
366.80993	0
367.02515	0
367.24039	0
367.45564	0
367.67091	0
367.88619	0
368.10149	0
368.31681	0
368.53214	0
368.74748	0
368.96285	0
369.17822	0
369.39361	0
369.60902	0
369.82445	0
370.03989	0
370.25534	0
370.47081	0
370.6863	0
370.9018	0
371.11731	0
371.33285	0
371.54839	0
371.76396	0
371.97954	0
372.19513	0
372.41074	0
372.62637	0
372.84201	0
373.05766	0
373.27334	0
373.48902	0
373.70473	0
373.92044	0
374.13618	0
374.35193	0
374.56769	0
374.78347	0
374.99927	0
375.21508	0
375.43091	0
375.64675	0
375.86261	0
376.07848	0
376.29437	0
376.51027	0
376.72619	0
376.94213	0
377.15808	0
377.37404	0
377.59002	0
377.80602	0
378.02203	0
378.23806	0
378.4541	0
378.67016	0
378.88623	0
379.10232	0
379.31842	0
379.53454	0
379.75068	0
379.96683	0
380.183	0
380.39918	0
380.61537	0
380.83158	0
381.04781	0
381.26405	0
381.48031	0
381.69659	-0.00428
381.91287	-6.52E-04
382.12918	-0.0038
382.3455	7.66E-04
382.56183	-0.00531
382.77818	0.00547
382.99455	-9.92E-05
383.21093	0.00159
383.42732	-0.00388
383.64373	9.82E-04
383.86016	-0.00346
384.0766	0.00242
384.29306	-0.00298
384.50953	0.00206
384.72602	-0.00215
384.94252	0.00245
385.15904	-0.00623
385.37557	0.00398
385.59212	-0.00232
385.80868	0.00385
386.02526	-0.00368
386.24186	0.00312
386.45847	-5.31E-04
386.67509	0.00261
386.89173	-0.00209
387.10839	0.00382
387.32506	-0.00172
387.54174	1.43E-04
387.75844	7.05E-05
387.97516	0.00255
388.19189	0.00317
388.40864	0.00382
388.6254	-1.55E-05
388.84218	0.00255
389.05897	-1.65E-04
389.27578	0.00358
389.4926	0.00215
389.70944	0.00357
389.92629	-0.00251
390.14316	0.00456
390.36004	0.00151
390.57694	0.00438
390.79385	-3.61E-04
391.01078	0.00528
391.22773	-0.00129
391.44469	0.0078
391.66166	5.74E-04
391.87865	0.00663
392.09566	0.00223
392.31268	0.00786
392.52971	0.00159
392.74676	0.00597
392.96383	0.00318
393.18091	0.00881
393.398	0.00295
393.61511	0.00932
393.83224	0.00608
394.04938	0.00901
394.26653	0.0045
394.48371	0.00567
394.70089	0.00555
394.91809	0.00938
395.13531	0.00588
395.35254	0.01064
395.56979	0.00762
395.78705	0.01041
396.00433	0.00876
396.22162	0.0147
396.43892	0.01075
396.65625	0.0145
396.87358	0.01117
397.09094	0.01318
397.3083	0.01072
397.52568	0.01528
397.74308	0.01101
397.96049	0.02078
398.17792	0.01285
398.39536	0.01967
398.61282	0.01434
398.83029	0.02025
399.04778	0.02016
399.26528	0.02345
399.4828	0.01765
399.70033	0.02773
399.91788	0.02519
400.13544	0.02643
400.35302	0.02909
400.57061	0.02968
400.78822	0.03383
401.00584	0.03419
401.22348	0.03212
401.44113	0.04049
401.6588	0.03709
401.87648	0.04319
402.09418	0.04195
402.31189	0.04535
402.52962	0.04779
402.74736	0.05399
402.96512	0.05237
403.18289	0.05788
403.40067	0.05733
403.61848	0.06323
403.83629	0.0642
404.05412	0.07222
404.27197	0.06766
404.48983	0.0745
404.70771	0.07754
404.9256	0.08149
405.14351	0.07967
405.36143	0.08793
405.57936	0.09281
405.79731	0.09804
406.01528	0.10019
406.23326	0.1101
406.45126	0.11313
406.66927	0.12322
406.88729	0.1259
407.10533	0.13893
407.32339	0.13905
407.54146	0.14822
407.75954	0.15493
407.97764	0.16088
408.19576	0.16833
408.41389	0.18618
408.63203	0.20046
408.85019	0.20574
409.06836	0.2154
409.28655	0.22171
409.50476	0.23423
409.72297	0.23519
409.94121	0.24452
410.15946	0.25699
410.37772	0.27243
410.596	0.28058
410.81429	0.29417
411.0326	0.3031
411.25092	0.32466
411.46925	0.33403
411.68761	0.34801
411.90597	0.35583
412.12435	0.37486
412.34275	0.38962
412.56116	0.40319
412.77959	0.41752
412.99803	0.4414
413.21648	0.45085
413.43495	0.47399
413.65344	0.48233
413.87193	0.50446
414.09045	0.52641
414.30898	0.54643
414.52752	0.56137
414.74608	0.57637
414.96465	0.60367
415.18324	0.63445
415.40184	0.64536
415.62046	0.66313
415.83909	0.69305
416.05774	0.7186
416.2764	0.73405
416.49508	0.75812
416.71377	0.7849
416.93247	0.81842
417.15119	0.82846
417.36993	0.84814
417.58868	0.87436
417.80744	0.90081
418.02622	0.90541
418.24501	0.92579
418.46382	0.93357
418.68264	0.94492
418.90148	0.95043
419.12033	0.96612
419.3392	0.97655
419.55808	0.99928
419.77698	1
419.99589	0.99394
420.21481	0.99022
420.43375	0.99303
420.65271	0.98889
420.87167	0.98265
421.09066	0.96742
421.30966	0.97671
421.52867	0.97992
421.7477	0.96809
421.96674	0.95967
422.1858	0.95783
422.40487	0.93409
422.62395	0.92725
422.84305	0.9108
423.06217	0.9046
423.2813	0.89165
423.50044	0.87811
423.7196	0.86319
423.93878	0.84415
424.15796	0.84289
424.37717	0.83567
424.59638	0.81818
424.81561	0.78164
425.03486	0.77442
425.25412	0.7609
425.4734	0.73395
425.69269	0.70964
425.91199	0.68336
426.13131	0.67117
426.35064	0.65024
426.56999	0.63842
426.78935	0.61724
427.00873	0.60022
427.22812	0.58276
427.44753	0.55123
427.66695	0.52642
427.88638	0.51584
428.10583	0.49649
428.3253	0.48291
428.54477	0.46592
428.76427	0.45387
428.98377	0.44016
429.2033	0.43242
429.42283	0.4146
429.64238	0.40782
429.86195	0.38788
430.08153	0.3807
430.30112	0.37017
430.52073	0.36329
430.74035	0.35715
430.95999	0.34718
431.17964	0.34037
431.39931	0.34016
431.61899	0.33096
431.83868	0.32434
432.05839	0.30617
432.27812	0.29899
432.49785	0.28261
432.71761	0.28426
432.93737	0.27694
433.15716	0.27549
433.37695	0.26394
433.59676	0.25845
433.81659	0.25351
434.03643	0.24594
434.25628	0.23685
434.47615	0.22889
434.69603	0.21803
434.91593	0.21397
435.13584	0.20837
435.35576	0.20404
435.5757	0.19952
435.79565	0.19438
436.01562	0.18668
436.23561	0.18454
436.4556	0.17675
436.67561	0.17316
436.89564	0.16366
437.11568	0.16049
437.33573	0.15449
437.5558	0.15237
437.77589	0.14462
437.99598	0.14477
438.21609	0.13835
438.43622	0.13656
438.65636	0.13033
438.87651	0.1295
439.09668	0.12478
439.31687	0.12192
439.53706	0.11425
439.75727	0.11076
439.9775	0.1069
440.19774	0.10562
440.41799	0.09841
440.63826	0.09867
440.85855	0.09062
441.07884	0.09358
441.29915	0.08772
441.51948	0.08692
441.73982	0.08232
441.96017	0.08229
442.18054	0.07831
442.40092	0.0773
442.62132	0.07186
442.84173	0.0719
443.06216	0.06901
443.2826	0.06718
443.50305	0.06208
443.72352	0.05953
443.944	0.05747
444.1645	0.05731
444.38501	0.05618
444.60553	0.05398
444.82607	0.05222
445.04662	0.05192
445.26719	0.04999
445.48777	0.05197
445.70837	0.04891
445.92898	0.05016
446.1496	0.04743
446.37024	0.05018
446.59089	0.04639
446.81156	0.04716
447.03224	0.04285
447.25293	0.04281
447.47364	0.03852
447.69436	0.03925
447.9151	0.03765
448.13585	0.03866
448.35662	0.03558
448.5774	0.0358
448.79819	0.03586
449.019	0.03739
449.23982	0.03384
449.46065	0.03353
449.6815	0.0313
449.90237	0.03149
450.12325	0.02924
450.34414	0.03026
450.56504	0.0286
450.78597	0.02907
451.0069	0.02562
451.22785	0.02893
451.44881	0.02623
451.66979	0.02678
451.89078	0.0247
452.11178	0.02611
452.3328	0.02123
452.55383	0.02488
452.77488	0.02068
452.99594	0.02169
453.21702	0.0187
453.43811	0.02059
453.65921	0.01932
453.88032	0.02146
454.10146	0.01674
454.3226	0.01892
454.54376	0.01817
454.76493	0.0188
454.98612	0.01646
455.20732	0.01575
455.42854	0.01594
455.64976	0.0179
455.87101	0.01385
456.09226	0.01642
456.31354	0.01447
456.53482	0.01555
456.75612	0.01306
456.97743	0.01611
457.19876	0.01255
457.4201	0.01405
457.64145	0.01156
457.86282	0.01316
458.08421	0.01143
458.3056	0.01243
458.52701	0.01068
458.74844	0.01316
458.96988	0.00776
459.19133	0.01177
459.41279	0.01041
459.63427	0.00957
459.85577	0.00858
460.07728	0.01076
460.2988	0.0084
460.52033	0.01
460.74188	0.00862
460.96345	0.00969
461.18502	0.00923
461.40662	0.01086
461.62822	0.00743
461.84984	0.00988
462.07147	0.00783
462.29312	0.0093
462.51478	0.00636
462.73645	0.00795
462.95814	0.00753
463.17984	0.00921
463.40156	0.00714
463.62329	0.00842
463.84503	0.00621
464.06679	0.0084
464.28856	0.00672
464.51035	0.00806
464.73215	0.00705
464.95396	0.00651
465.17579	0.00737
465.39763	0.00654
465.61948	0.00748
465.84135	0.00515
466.06323	0.00584
466.28513	0.00459
466.50704	0.00646
466.72896	0.00556
466.9509	0.00613
467.17285	0.00383
467.39481	0.00519
467.61679	0.00549
467.83878	0.00652
468.06079	0.00444
468.28281	0.00576
468.50484	0.00408
468.72689	0.00562
468.94895	0.00541
469.17103	0.00537
469.39312	0.00417
469.61522	0.00566
469.83733	0.00393
470.05946	0.00521
470.28161	0.00334
470.50376	0.00564
470.72594	0.00429
470.94812	0.00555
471.17032	0.00392
471.39253	0.00555
471.61476	0.00289
471.837	0.00393
472.05925	0.00343
472.28152	0.00447
472.5038	0.00296
472.72609	0.00539
472.9484	0.00254
473.17072	0.00428
473.39305	0.00272
473.6154	0.00544
473.83777	0.00283
474.06014	0.00384
474.28253	0.00281
474.50494	0.00373
474.72735	0.00326
474.94978	0.00395
475.17223	0.00348
475.39469	0.00435
475.61716	0.00313
475.83964	0.00486
476.06214	0.00195
476.28465	0.00366
476.50718	0.00194
476.72972	0.00339
476.95227	0.00268
477.17484	0.00296
477.39742	0.00243
477.62001	0.0036
477.84262	0.00162
478.06524	0.00296
478.28788	0.00254
478.51053	0.0039
478.73319	0.00226
478.95586	0.00374
479.17855	0.0015
479.40126	0.00414
479.62397	0.00149
479.8467	0.00383
480.06945	0.00196
480.2922	0.0042
480.51497	0.00273
480.73776	0.00359
480.96056	0.00248
481.18337	0.00338
481.40619	0.00231
481.62903	0.00414
481.85188	0.00303
482.07475	0.00415
482.29763	0.00216
482.52052	0.00438
482.74342	0.00176
482.96634	0.004
483.18928	0.00187
483.41222	0.00457
483.63518	0.00252
483.85815	0.00345
484.08114	0.00376
484.30414	0.00457
484.52715	0.00452
484.75018	0.005
484.97322	0.00352
485.19628	0.00622
485.41934	0.00535
485.64242	0.00745
485.86552	0.00383
486.08863	0.00571
486.31175	0.00425
486.53488	0.00455
486.75803	0.00266
486.98119	0.00574
487.20437	0.00101
487.42756	0.00583
487.65076	0.0022
487.87397	0.00508
488.0972	0.0025
488.32044	0.00359
488.5437	0.00184
488.76697	0.0026
488.99025	0.00163
489.21354	0.00384
489.43685	0.00141
489.66018	0.00361
489.88351	0.00189
490.10686	0.00216
490.33022	9.01E-04
490.5536	0.00356
490.77699	0.00177
491.00039	0.00288
491.22381	0.00271
491.44724	0.00293
491.67068	0.00172
491.89413	0.00309
492.1176	0.0024
492.34109	0.00321
492.56458	0.00213
492.78809	0.00341
493.01161	0.00127
493.23515	0.00155
493.4587	0.00213
493.68226	0.00226
493.90584	0.00149
494.12943	0.00319
494.35303	0.00166
494.57664	0.00251
494.80027	0.00103
495.02391	0.00355
495.24757	0.00155
495.47124	0.00265
495.69492	0.0023
495.91862	0.00176
496.14232	0.00177
496.36605	0.00333
496.58978	0.00239
496.81353	0.00307
497.03729	0.00168
497.26107	0.00248
497.48485	0.00159
497.70866	0.00298
497.93247	0.00167
498.1563	0.00161
498.38014	0.00165
498.60399	0.0033
498.82786	0.0017
499.05174	0.00244
499.27564	0.00183
499.49954	0.00223
499.72346	0.00216
499.9474	0.00255
500.17134	0.00149
500.3953	0.00242
500.61928	0.00131
500.84326	0.00265
501.06726	0.00139
501.29127	0.00229
501.5153	0.00102
501.73934	0.00278
501.96339	7.80E-04
502.18745	0.00247
502.41153	0.0014
502.63562	0.00238
502.85973	0.00112
503.08385	0.00277
503.30798	6.13E-04
503.53212	0.00233
503.75628	0.00137
503.98045	0.00284
504.20463	0.00146
504.42883	0.00213
504.65304	0.00186
504.87726	0.00231
505.1015	0.00201
505.32575	0.00238
505.55001	0.00167
505.77428	0.00186
505.99857	0.00172
506.22287	0.00203
506.44719	0.00164
506.67151	0.00273
506.89585	0.0011
507.12021	0.00236
507.34457	0.0018
507.56895	0.00254
507.79335	0.00208
508.01775	0.00235
508.24217	0.00143
508.4666	0.00216
508.69105	0.00131
508.91551	0.002
509.13998	0.00119
509.36446	0.00199
509.58896	0.00141
509.81347	0.00213
510.03799	0.00149
510.26253	0.00229
510.48708	0.00113
510.71164	0.00201
510.93621	0.00147
511.1608	0.00283
511.3854	0.00176
511.61002	0.00233
511.83464	0.00131
512.05928	0.00231
512.28394	0.00246
512.5086	0.00185
512.73328	6.46E-04
512.95797	0.00256
513.18268	3.80E-04
513.4074	0.00218
513.63213	0.00192
513.85687	0.00272
514.08163	0.00115
514.3064	0.00274
514.53118	0.00186
514.75597	0.00234
514.98078	0.00126
515.2056	0.00236
515.43044	0.00209
515.65529	0.00234
515.88015	0.00133
516.10502	0.00265
516.3299	0.00123
516.5548	0.00204
516.77972	0.00127
517.00464	0.00226
517.22958	0.00159
517.45453	0.00301
517.67949	0.00134
517.90447	0.00139
518.12946	0.00103
518.35446	0.00243
518.57947	0.00116
518.8045	0.00243
519.02954	7.05E-04
519.25459	0.00185
519.47966	0.00157
519.70474	0.00143
519.92983	5.61E-04
520.15493	0.00187
520.38005	0.00156
520.60518	0.00162
520.83033	7.23E-04
521.05548	0.00224
521.28065	0.00104
521.50583	0.00272
521.73103	0.00139
521.95623	0.00102
522.18145	0.00178
522.40669	4.56E-04
522.63193	0.00221
522.85719	0.00177
523.08246	0.00182
523.30774	0.00143
523.53304	0.00189
523.75835	0.00129
523.98367	0.00215
524.20901	0.00111
524.43436	0.00243
524.65972	9.70E-04
524.88509	0.00206
525.11048	0.00141
525.33587	0.00202
525.56129	0.00167
525.78671	0.00289
526.01215	0.0011
526.2376	0.00207
526.46306	0.00114
526.68853	0.00198
526.91402	5.92E-04
527.13952	0.00153
527.36504	9.89E-04
527.59056	0.00191
527.8161	0.00226
528.04165	0.00146
528.26722	0.00153
528.49279	0.00153
528.71838	5.52E-04
528.94398	0.00222
529.1696	6.85E-04
529.39523	0.00216
529.62087	0.0013
529.84652	0.00242
530.07218	7.00E-04
530.29786	0.00179
530.52355	3.39E-04
530.74926	0.00207
530.97497	0.00112
531.2007	0.00225
531.42644	8.91E-04
531.6522	0.00157
531.87796	0.00158
532.10374	0.00256
532.32953	0.00136
532.55534	0.0028
532.78116	5.65E-04
533.00698	0.00109
533.23283	0.00119
533.45868	0.00227
533.68455	4.55E-04
533.91043	0.00151
534.13632	0.00107
534.36223	0.00132
534.58815	6.93E-04
534.81408	0.00158
535.04002	6.60E-04
535.26597	0.00241
535.49194	0.00193
535.71792	0.00173
535.94392	0.00143
536.16992	0.00163
536.39594	0.00106
536.62197	0.00181
536.84801	5.77E-04
537.07407	0.00228
537.30014	0.00106
537.52622	0.00179
537.75231	6.18E-04
537.97842	0.00155
538.20454	0.00114
538.43067	0.00188
538.65681	9.47E-04
538.88297	0.00222
539.10914	0.00143
539.33532	0.00187
539.56151	7.63E-04
539.78772	0.00166
540.01394	0.00123
540.24017	0.00203
540.46641	8.97E-04
540.69267	0.00185
540.91893	6.42E-04
541.14522	0.00154
541.37151	2.44E-04
541.59781	0.00163
541.82413	9.50E-04
542.05046	0.00126
542.27681	8.22E-04
542.50316	0.00252
542.72953	9.03E-04
542.95591	0.00217
543.1823	4.33E-04
543.40871	0.00166
543.63513	6.38E-04
543.86156	0.00229
544.088	9.91E-04
544.31445	0.00209
544.54092	4.69E-04
544.7674	0.00181
544.99389	3.24E-04
545.2204	0.00165
545.44691	4.62E-04
545.67344	0.00151
545.89999	0.0011
546.12654	0.00132
546.35311	0.00121
546.57968	0.00147
546.80628	6.07E-04
547.03288	0.00111
547.2595	7.38E-04
547.48612	0.00178
547.71276	4.97E-04
547.93942	0.00132
548.16608	6.64E-04
548.39276	0.00152
548.61945	5.34E-04
548.84615	0.00185
549.07287	4.37E-04
549.29959	0.00204
549.52633	6.20E-04
549.75308	0.00155
549.97985	8.84E-04
550.20662	0.00167
550.43341	9.14E-04
550.66021	0.00147
550.88703	8.94E-04
551.11385	0.00145
551.34069	8.01E-04
551.56754	6.17E-04
551.7944	3.16E-04
552.02128	0.00126
552.24816	3.97E-04
552.47506	7.72E-04
552.70197	0.00106
552.9289	0.00161
553.15583	9.94E-04
553.38278	0.00153
553.60974	4.89E-04
553.83671	0.00143
554.0637	7.54E-04
554.29069	0.00208
554.5177	5.04E-04
554.74473	0.00166
554.97176	0.00107
555.1988	8.41E-04
555.42586	3.56E-04
555.65293	0.00167
555.88002	0.00127
556.10711	0.00164
556.33422	5.42E-04
556.56134	9.66E-04
556.78847	8.10E-04
557.01561	0.00162
557.24277	9.74E-04
557.46993	0.00162
557.69711	1.63E-05
557.92431	0.00146
558.15151	7.54E-04
558.37873	8.45E-04
558.60596	8.73E-04
558.8332	0.00139
559.06045	9.34E-04
559.28771	0.00121
559.51499	0.00132
559.74228	0.00125
559.96958	4.86E-04
560.1969	0.00163
560.42422	7.36E-04
560.65156	0.00143
560.87891	8.26E-04
561.10627	0.00179
561.33365	7.30E-04
561.56103	0.00148
561.78843	4.14E-04
562.01584	0.00128
562.24326	2.98E-04
562.4707	0.00149
562.69815	7.99E-04
562.9256	0.00138
563.15308	-5.62E-05
563.38056	0.00111
563.60805	9.76E-04
563.83556	0.00153
564.06308	2.49E-04
564.29061	8.72E-04
564.51815	8.03E-04
564.74571	0.00144
564.97328	7.33E-04
565.20086	0.00179
565.42845	1.18E-04
565.65605	0.00152
565.88367	9.61E-04
566.11129	0.00104
566.33893	3.79E-04
566.56659	0.00126
566.79425	0.00103
567.02192	0.00169
567.24961	4.40E-04
567.47731	0.00158
567.70502	5.94E-04
567.93275	0.00134
568.16048	7.79E-04
568.38823	0.0016
568.61599	5.13E-04
568.84376	8.32E-04
569.07155	5.93E-04
569.29934	4.22E-04
569.52715	5.26E-04
569.75497	0.00183
569.9828	4.11E-04
570.21064	7.70E-04
570.4385	5.67E-04
570.66636	7.39E-04
570.89424	4.49E-04
571.12213	0.00137
571.35004	3.34E-04
571.57795	0.00186
571.80588	4.98E-04
572.03382	0.00108
572.26177	-2.09E-05
572.48973	0.00167
572.71771	4.21E-04
572.94569	0.00158
573.17369	1.35E-04
573.4017	0.00105
573.62972	1.00E-04
573.85776	0.00108
574.0858	-1.40E-05
574.31386	0.00117
574.54193	2.47E-04
574.77001	9.18E-04
574.99811	3.63E-04
575.22621	7.26E-04
575.45433	9.38E-05
575.68246	0.00105
575.9106	1.65E-04
576.13875	0.00114
576.36692	-1.94E-04
576.59509	0.00111
576.82328	2.20E-04
577.05148	0.00117
577.27969	4.75E-04
577.50792	0.00166
577.73615	4.52E-04
577.9644	0.00135
578.19266	-3.69E-04
578.42093	0.00129
578.64921	8.44E-04
578.87751	0.0014
579.10581	2.17E-04
579.33413	0.00122
579.56246	8.28E-04
579.7908	0.00129
580.01916	0.00136
580.24752	1.26E-04
580.4759	0.00163
580.70429	-1.18E-04
580.93269	9.99E-04
581.1611	5.23E-05
581.38952	0.00115
581.61796	-2.31E-04
581.84641	8.22E-04
582.07487	-1.66E-04
582.30334	6.18E-04
582.53182	2.10E-04
582.76032	8.63E-04
582.98882	5.39E-04
583.21734	7.12E-04
583.44587	6.24E-05
583.67441	6.22E-04
583.90297	6.56E-05
584.13153	0.00105
584.36011	2.77E-05
584.58869	0.00154
584.81729	-3.61E-04
585.04591	8.39E-04
585.27453	5.37E-04
585.50317	4.50E-04
585.73181	-4.38E-04
585.96047	8.73E-04
586.18914	1.93E-04
586.41782	8.78E-04
586.64652	-1.15E-04
586.87522	0.0014
587.10394	6.81E-04
587.33267	8.63E-04
587.56141	6.85E-05
587.79016	6.96E-04
588.01892	-1.74E-04
588.2477	0.00136
588.47648	3.22E-05
588.70528	0.00112
588.93409	2.17E-04
589.16291	0.00104
589.39175	6.20E-04
589.62059	5.62E-04
589.84945	6.29E-05
590.07831	8.50E-04
590.30719	-2.10E-04
590.53609	0.00122
590.76499	2.61E-04
590.9939	9.43E-04
591.22283	8.62E-04
591.45177	0.00125
591.68072	-2.15E-04
591.90968	0.00102
592.13865	1.92E-04
592.36763	6.64E-04
592.59663	8.34E-04
592.82563	0.00126
593.05465	1.70E-04
593.28368	7.64E-04
593.51272	1.95E-04
593.74178	0.00153
593.97084	5.27E-05
594.19992	0.00106
594.42901	4.47E-04
594.65811	8.34E-04
594.88722	3.62E-04
595.11634	6.55E-04
595.34547	-2.43E-04
595.57462	3.88E-04
595.80377	8.76E-06
596.03294	8.10E-04
596.26212	3.18E-04
596.49131	0.0011
596.72052	6.20E-04
596.94973	7.27E-04
597.17896	-2.35E-04
597.40819	0.00133
597.63744	-1.00E-04
597.8667	8.76E-04
598.09597	-3.04E-05
598.32526	0.00114
598.55455	-1.80E-04
598.78386	0.00127
599.01318	1.33E-04
599.2425	7.35E-04
599.47185	1.67E-05
599.7012	8.06E-04
599.93056	7.15E-04
600.15993	5.11E-04
600.38932	3.82E-04
600.61872	0.0012
600.84813	2.69E-04
601.07755	0.00132
601.30698	-4.86E-05
601.53642	8.11E-04
601.76588	2.43E-04
601.99534	6.02E-04
602.22482	6.72E-05
602.45431	3.16E-04
602.68381	-3.50E-04
602.91332	3.43E-04
603.14284	9.10E-05
603.37238	9.74E-04
603.60192	-2.40E-04
603.83148	6.70E-04
604.06105	4.87E-04
604.29063	6.51E-04
604.52022	5.86E-05
604.74982	5.89E-04
604.97944	2.31E-04
605.20906	5.49E-04
605.4387	-1.96E-04
605.66835	0.00137
605.898	4.44E-04
606.12768	8.40E-04
606.35736	-6.62E-05
606.58705	4.81E-04
606.81675	-1.09E-04
607.04647	2.51E-04
607.2762	-4.62E-04
607.50594	5.29E-04
607.73569	-3.37E-04
607.96545	0.00137
608.19522	4.54E-04
608.425	6.64E-04
608.6548	4.52E-04
608.8846	6.89E-04
609.11442	-3.49E-05
609.34425	4.94E-04
609.57409	2.65E-04
609.80394	6.12E-04
610.0338	8.69E-05
610.26368	8.48E-04
610.49356	7.64E-05
610.72346	9.95E-04
610.95336	3.63E-04
611.18328	0.00129
611.41321	-5.18E-05
611.64315	7.84E-04
611.87311	5.90E-04
612.10307	0.00117
612.33304	6.35E-05
612.56303	8.03E-04
612.79303	-3.97E-04
613.02304	7.73E-04
613.25306	3.40E-04
613.48309	5.21E-04
613.71313	-9.42E-05
613.94318	0.00102
614.17325	-2.95E-04
614.40332	5.92E-04
614.63341	-1.26E-04
614.86351	2.92E-04
615.09362	-4.19E-05
615.32374	4.92E-04
615.55387	-3.14E-04
615.78401	0.00114
616.01416	1.45E-04
616.24433	7.82E-04
616.4745	1.04E-04
616.70469	6.35E-04
616.93489	6.34E-05
617.1651	7.13E-04
617.39532	-2.24E-04
617.62555	0.00165
617.85579	-7.35E-04
618.08605	7.43E-04
618.31631	-2.87E-04
618.54659	7.38E-04
618.77688	2.20E-04
619.00717	0.00151
619.23748	-3.41E-04
619.4678	0.00113
619.69814	7.76E-04
619.92848	5.14E-04
620.15883	-4.26E-04
620.3892	4.43E-04
620.61957	-2.32E-04
620.84996	0.00112
621.08036	-3.33E-04
621.31077	6.31E-04
621.54119	-5.52E-05
621.77162	5.76E-04
622.00206	-1.73E-04
622.23252	5.84E-04
622.46298	-2.40E-04
622.69345	0.00104
622.92394	-4.98E-05
623.15444	8.84E-04
623.38495	2.55E-05
623.61547	0.00126
623.846	2.77E-04
624.07654	7.35E-04
624.30709	-1.94E-04
624.53766	8.38E-04
624.76823	-8.04E-05
624.99882	8.82E-04
625.22941	9.79E-05
625.46002	5.37E-04
625.69064	-4.18E-04
625.92127	6.52E-04
626.15191	-3.75E-04
626.38256	0.0014
626.61322	-2.80E-04
626.8439	4.98E-04
627.07458	1.28E-04
627.30528	0.00105
627.53598	-4.55E-04
627.7667	-2.79E-04
627.99743	1.52E-04
628.22817	7.16E-04
628.45892	3.95E-04
628.68968	7.47E-04
628.92045	1.05E-05
629.15123	8.68E-04
629.38203	-2.55E-04
629.61283	3.69E-04
629.84365	-1.66E-04
630.07447	5.39E-04
630.30531	3.10E-05
630.53616	0.00103
630.76702	-4.81E-04
630.99789	0.00114
631.22877	-1.32E-04
631.45966	8.40E-04
631.69057	-2.71E-04
631.92148	3.36E-04
632.1524	-1.03E-04
632.38334	9.47E-04
632.61429	-3.36E-04
632.84524	5.51E-04
633.07621	1.61E-07
633.30719	3.92E-04
633.53818	-7.76E-04
633.76918	2.39E-04
634.00019	-4.91E-04
634.23121	7.55E-04
634.46225	2.22E-04
634.69329	8.36E-04
634.92435	-2.99E-04
635.15541	9.10E-04
635.38649	-1.56E-04
635.61758	0.00118
635.84867	-4.39E-04
636.07978	8.77E-04
636.3109	2.49E-04
636.54203	6.22E-04
636.77317	-7.47E-04
637.00433	6.37E-04
637.23549	-3.52E-04
637.46666	9.33E-04
637.69785	-8.85E-05
637.92904	7.36E-04
638.16025	5.82E-05
638.39146	7.35E-04
638.62269	-5.32E-04
638.85393	1.05E-04
639.08518	3.49E-04
639.31644	2.75E-04
639.54771	3.80E-04
639.77899	-4.06E-05
640.01028	7.22E-04
640.24159	2.25E-04
640.4729	9.60E-04
640.70422	-1.84E-04
640.93556	6.04E-04
641.1669	-1.74E-04
641.39826	8.24E-04
641.62963	1.50E-04
641.86101	9.87E-04
642.09239	-1.23E-04
642.32379	9.70E-04
642.5552	-9.22E-04
642.78662	9.02E-04
643.01805	2.60E-04
643.2495	5.11E-04
643.48095	-7.39E-04
643.71241	5.09E-04
643.94389	-3.54E-04
644.17537	3.29E-04
644.40687	-9.33E-04
644.63837	4.36E-04
644.86989	-1.01E-05
645.10142	5.90E-04
645.33295	-1.71E-04
645.5645	7.69E-04
645.79606	-9.23E-05
646.02763	3.89E-04
646.25921	2.71E-04
646.4908	7.78E-04
646.7224	2.71E-04
646.95402	7.49E-04
647.18564	-1.97E-04
647.41727	0.00108
647.64892	-7.69E-04
647.88057	3.95E-04
648.11224	-2.51E-04
648.34391	6.26E-04
648.5756	-2.88E-04
648.8073	4.79E-04
649.03901	-8.26E-04
649.27072	8.76E-04
649.50245	-5.80E-04
649.73419	6.55E-04
649.96594	-1.94E-04
650.1977	5.06E-04
650.42947	3.95E-04
650.66126	0.00101
650.89305	-2.12E-04
651.12485	2.27E-04
651.35666	-2.05E-04
651.58849	6.40E-04
651.82032	-2.19E-04
652.05217	7.34E-04
652.28402	-5.79E-04
652.51589	8.97E-04
652.74776	-3.83E-04
652.97965	8.97E-04
653.21155	-6.32E-04
653.44346	7.66E-04
653.67538	-2.29E-04
653.90731	7.70E-04
654.13924	-5.06E-05
654.37119	3.86E-04
654.60316	-8.39E-04
654.83513	4.44E-04
655.06711	-4.61E-04
655.2991	4.58E-04
655.5311	-4.13E-04
655.76312	0.00122
655.99514	-0.00105
656.22717	5.72E-04
656.45922	-1.25E-04
656.69127	2.04E-04
656.92334	-2.67E-04
657.15541	6.68E-04
657.3875	-9.14E-04
657.61959	5.77E-05
657.8517	-4.24E-04
658.08382	4.82E-04
658.31595	-3.22E-04
658.54809	5.11E-04
658.78023	-3.34E-04
659.01239	7.61E-04
659.24456	1.89E-04
659.47674	5.71E-04
659.70893	-2.45E-04
659.94113	6.58E-04
660.17334	-1.60E-04
660.40557	4.27E-04
660.6378	3.45E-05
660.87004	4.17E-04
661.10229	-4.84E-04
661.33455	8.07E-04
661.56683	-5.31E-04
661.79911	3.38E-04
662.03141	-4.87E-04
662.26371	8.27E-04
662.49603	-4.13E-04
662.72835	2.28E-04
662.96069	-7.03E-04
663.19303	8.23E-04
663.42539	-2.39E-04
663.65775	4.76E-04
663.89013	-6.03E-04
664.12252	2.31E-04
664.35492	-2.52E-04
664.58732	3.37E-04
664.81974	-4.91E-04
665.05217	6.88E-04
665.28461	-0.00105
665.51706	3.42E-04
665.74952	-6.07E-04
665.98199	1.15E-04
666.21447	-4.61E-04
666.44696	7.95E-04
666.67946	-4.76E-04
666.91197	3.77E-04
667.14449	2.23E-04
667.37702	4.96E-04
667.60956	-2.13E-04
667.84211	3.07E-04
668.07467	-6.28E-05
668.30725	7.45E-04
668.53983	-3.42E-04
668.77242	6.27E-04
669.00502	-3.18E-04
669.23764	7.05E-04
669.47026	1.23E-04
669.7029	3.30E-04
669.93554	-6.27E-04
670.16819	3.90E-04
670.40086	-1.14E-04
670.63353	2.97E-04
670.86622	-4.62E-04
671.09891	3.87E-04
671.33162	-4.08E-04
671.56433	4.45E-04
671.79706	-8.57E-04
672.02979	5.65E-04
672.26254	-2.55E-04
672.4953	5.86E-04
672.72806	-0.00116
672.96084	8.74E-04
673.19362	-3.46E-04
673.42642	-2.77E-06
673.65923	-4.83E-04
673.89205	6.15E-04
674.12487	-6.94E-04
674.35771	1.70E-04
674.59056	-0.00109
674.82342	5.63E-04
675.05628	-6.95E-04
675.28916	-3.76E-04
675.52205	-0.00109
675.75495	4.48E-04
675.98786	-0.00109
676.22077	1.54E-04
676.4537	-5.49E-04
676.68664	3.56E-04
676.91959	-8.17E-04
677.15255	1.09E-04
677.38552	-4.02E-05
677.6185	5.98E-04
677.85149	2.09E-04
678.08449	-5.93E-05
678.3175	-3.44E-04
678.55051	-6.56E-05
678.78354	-0.00124
679.01658	6.81E-04
679.24963	-8.12E-04
679.48269	2.98E-04
679.71576	-2.83E-04
679.94884	0.00103
680.18193	-5.87E-04
680.41503	3.55E-05
680.64814	-2.89E-04
680.88126	6.32E-04
681.11439	-2.74E-04
681.34753	5.41E-04
681.58068	1.79E-04
681.81384	4.21E-04
682.04701	-5.42E-04
682.28019	7.28E-04
682.51338	-3.88E-04
682.74658	7.57E-04
682.97979	-4.91E-04
683.21301	-2.29E-04
683.44624	-4.03E-04
683.67948	2.48E-04
683.91273	3.60E-04
684.14599	5.53E-04
684.37926	7.45E-05
684.61254	-2.06E-04
684.84583	-6.36E-04
685.07913	1.82E-07
685.31244	-4.30E-04
685.54576	1.40E-05
685.77909	-6.39E-04
686.01243	4.48E-04
686.24578	-5.59E-04
686.47914	3.33E-04
686.71251	-6.95E-04
686.94589	7.43E-04
687.17928	-1.92E-04
687.41268	1.79E-04
687.64609	-8.48E-04
687.87951	-3.88E-04
688.11294	-6.31E-04
688.34638	1.18E-04
688.57982	-9.06E-04
688.81328	2.51E-04
689.04675	-7.26E-04
689.28023	1.34E-04
689.51372	-1.88E-04
689.74722	6.38E-04
689.98073	-5.20E-04
690.21424	8.69E-04
690.44777	-2.38E-04
690.68131	1.99E-04
690.91486	-9.07E-04
691.14842	6.40E-04
691.38198	-5.11E-04
691.61556	9.48E-04
691.84915	-6.75E-04
692.08274	-8.19E-05
692.31635	-8.93E-04
692.54997	3.35E-04
692.78359	9.86E-05
693.01723	4.22E-04
693.25088	-0.00114
693.48453	7.29E-05
693.7182	-4.94E-04
693.95187	4.26E-04
694.18556	-3.92E-04
694.41925	7.14E-04
694.65296	-2.67E-04
694.88667	6.06E-04
695.1204	-5.25E-04
695.35413	7.10E-04
695.58788	-7.12E-04
695.82163	3.26E-04
696.0554	-8.05E-04
696.28917	3.66E-04
696.52295	-0.00109
696.75675	7.18E-04
696.99055	-0.00113
697.22436	2.30E-04
697.45818	-6.17E-04
697.69202	4.28E-04
697.92586	-8.10E-04
698.15971	3.70E-04
698.39357	4.02E-04
698.62744	-0.0014
698.86132	1.04E-04
699.09521	2.03E-04
699.32911	6.90E-04
699.56302	-4.23E-04
699.79694	5.44E-04
700.03087	-0.0014
700.26481	-4.85E-04
700.49876	-0.001
700.73272	1.25E-05
700.96669	-5.59E-04
701.20066	3.38E-04
701.43465	-2.17E-04
701.66865	7.85E-04
701.90266	-0.00101
702.13667	9.29E-05
702.3707	-8.87E-04
702.60473	0.00111
702.83878	-8.67E-04
703.07284	7.31E-04
703.3069	-7.11E-04
703.54097	9.66E-04
703.77506	-9.78E-04
704.00915	4.05E-04
704.24326	-9.35E-04
704.47737	1.46E-04
704.71149	-3.65E-04
704.94562	6.53E-04
705.17977	-0.00123
705.41392	6.82E-04
705.64808	-4.91E-04
705.88225	2.68E-04
706.11643	-6.05E-04
706.35062	5.45E-04
706.58482	-0.00105
706.81903	4.59E-04
707.05325	-9.73E-04
707.28748	4.14E-04
707.52171	-9.98E-04
707.75596	3.69E-05
707.99022	-0.00116
708.22449	8.92E-04
708.45876	-8.35E-04
708.69305	7.50E-04
708.92734	-5.07E-04
709.16165	8.88E-04
709.39596	-8.54E-04
709.63029	5.83E-04
709.86462	-3.68E-04
710.09896	7.28E-04
710.33332	-8.17E-04
710.56768	4.08E-05
710.80205	-4.04E-04
711.03643	0.00109
711.27082	-0.00101
711.50522	0.00116
711.73963	-7.81E-04
711.97405	5.63E-04
712.20848	-0.00101
712.44292	6.59E-04
712.67737	-6.46E-04
712.91182	2.33E-04
713.14629	-1.32E-04
713.38077	1.05E-04
713.61525	-0.00129
713.84975	2.37E-04
714.08425	-4.04E-04
714.31876	3.33E-04
714.55329	-0.00118
714.78782	3.20E-04
715.02236	-5.48E-04
715.25692	5.72E-04
715.49148	-0.00106
715.72605	7.79E-04
715.96063	-0.00117
716.19522	-3.27E-04
716.42982	-6.26E-04
716.66443	1.72E-04
716.89904	-5.17E-04
717.13367	-1.16E-05
717.36831	-2.62E-04
717.60295	6.75E-04
717.83761	-0.00111
718.07227	2.50E-04
718.30695	-6.17E-04
718.54163	7.93E-05
718.77633	-5.64E-04
719.01103	2.60E-04
719.24574	-5.43E-04
719.48046	-1.14E-04
719.71519	-2.08E-04
719.94993	1.18E-04
720.18468	-7.37E-04
720.41944	2.81E-04
720.65421	-8.94E-05
720.88899	3.70E-04
721.12377	-0.00105
721.35857	-3.45E-05
721.59337	-4.15E-04
721.82819	0.00102
722.06301	-7.16E-04
722.29785	2.06E-04
722.53269	-7.62E-04
722.76754	3.98E-04
723.0024	-2.70E-04
723.23727	9.42E-04
723.47216	-2.69E-04
723.70704	5.89E-04
723.94194	-4.03E-04
724.17685	1.50E-04
724.41177	-7.61E-04
724.6467	2.41E-04
724.88163	-1.56E-04
725.11658	4.46E-04
725.35153	-9.89E-04
725.58649	-3.34E-04
725.82147	-5.87E-04
726.05645	6.92E-04
726.29144	-6.63E-04
726.52644	7.87E-04
726.76145	-7.32E-04
726.99647	2.89E-04
727.2315	-6.59E-04
727.46654	5.91E-04
727.70158	-2.76E-04
727.93664	2.91E-04
728.17171	-4.64E-04
728.40678	8.90E-04
728.64187	-3.70E-04
728.87696	1.55E-04
729.11206	-6.54E-04
729.34717	5.51E-04
729.58229	-0.00103
729.81742	6.51E-04
730.05256	-0.00118
730.28771	-2.55E-04
730.52287	-9.72E-04
730.75804	1.27E-04
730.99321	-2.94E-04
731.2284	5.91E-04
731.46359	-0.00119
731.69879	5.89E-04
731.93401	-8.87E-04
732.16923	0.00102
732.40446	-7.76E-04
732.6397	-5.73E-05
732.87495	-8.35E-04
733.11021	6.99E-04
733.34547	-0.00105
733.58075	-4.63E-05
733.81604	-1.46E-04
734.05133	2.90E-04
734.28664	-2.00E-04
734.52195	2.21E-04
734.75727	-7.09E-04
734.9926	3.67E-04
735.22794	-0.00108
735.46329	5.16E-04
735.69865	-5.54E-04
735.93402	5.01E-04
736.1694	-6.50E-04
736.40478	9.26E-05
736.64018	1.17E-04
736.87558	-1.67E-04
737.111	-2.48E-04
737.34642	2.48E-04
737.58185	-8.25E-04
737.81729	7.29E-04
738.05274	-1.98E-04
738.2882	1.13E-04
738.52367	-7.14E-04
738.75914	3.53E-04
738.99463	-6.74E-04
739.23012	7.59E-04
739.46563	-4.56E-05
739.70114	1.24E-04
739.93666	-5.40E-04
740.17219	5.32E-05
740.40773	-6.39E-04
740.64328	4.13E-04
740.87884	-6.81E-04
741.11441	4.38E-04
741.34998	-0.00107
741.58557	-4.22E-05
741.82116	-4.24E-04
742.05676	7.49E-04
742.29238	-9.16E-05
742.528	-3.14E-04
742.76363	-4.95E-04
742.99927	-1.09E-04
743.23491	-9.21E-04
743.47057	3.37E-04
743.70624	-6.07E-04
743.94191	2.91E-04
744.1776	-5.83E-04
744.41329	-5.12E-04
744.64899	-0.00133
744.8847	2.50E-04
745.12042	-6.93E-04
745.35615	7.53E-05
745.59189	-9.55E-04
745.82763	8.97E-05
746.06339	-0.0011
746.29915	4.75E-04
746.53493	1.82E-05
746.77071	7.59E-05
747.0065	-5.69E-04
747.2423	9.39E-04
747.47811	-0.00137
747.71393	-2.71E-04
747.94975	-7.61E-04
748.18559	6.44E-04
748.42143	-9.54E-04
748.65728	1.39E-04
748.89315	-2.01E-04
749.12902	5.72E-04
749.3649	-3.12E-04
749.60079	4.34E-04
749.83668	-8.10E-04
750.07259	1.55E-04
750.30851	-6.39E-04
750.54443	-4.79E-05
750.78036	-6.16E-04
751.0163	6.37E-04
751.25226	-9.58E-04
751.48821	-3.51E-04
751.72418	-9.22E-04
751.96016	-6.70E-04
752.19615	-9.71E-04
752.43214	3.54E-04
752.66814	-4.52E-04
752.90416	5.29E-04
753.14018	-2.38E-04
753.37621	-2.09E-04
753.61225	-8.07E-04
753.8483	2.83E-04
754.08435	-8.17E-04
754.32042	-2.66E-05
754.55649	-9.94E-04
754.79257	-2.81E-04
755.02867	-8.86E-04
755.26477	4.06E-04
755.50087	-6.74E-04
755.73699	5.48E-04
755.97312	-4.94E-04
756.20925	1.83E-04
756.4454	-9.30E-04
756.68155	-3.56E-04
756.91771	-8.83E-04
757.15388	1.77E-04
757.39006	-0.00136
757.62625	5.94E-04
757.86245	4.79E-05
758.09865	1.95E-04
758.33487	-4.94E-04
758.57109	-2.56E-04
758.80732	1.17E-04
759.04356	-0.00127
759.27981	4.92E-04
759.51607	-6.83E-04
759.75233	1.23E-05
759.98861	-1.83E-04
760.22489	9.52E-04
760.46118	-3.28E-04
760.69748	3.21E-04
760.93379	-5.78E-04
761.17011	3.27E-04
761.40644	-0.00131
761.64278	5.21E-04
761.87912	-3.05E-04
762.11547	-2.89E-04
762.35183	-0.00116
762.5882	6.12E-04
762.82458	-0.001
763.06097	4.98E-04
763.29737	-5.62E-04
763.53377	4.74E-04
763.77019	-8.60E-04
764.00661	7.22E-04
764.24304	-0.00151
764.47948	4.80E-04
764.71593	-9.01E-04
764.95238	-4.26E-04
765.18885	-1.91E-04
765.42532	-3.06E-04
765.6618	-8.38E-04
765.89829	4.19E-04
766.13479	-9.06E-04
766.3713	5.85E-04
766.60782	-0.00185
766.84434	9.74E-04
767.08088	-0.00117
767.31742	2.39E-04
767.55397	-1.80E-04
767.79053	6.90E-04
768.0271	-6.93E-04
768.26367	9.30E-04
768.50026	-3.40E-04
768.73685	4.67E-04
768.97346	-0.0015
769.21007	1.63E-04
769.44669	-7.29E-04
769.68331	4.69E-04
769.91995	-7.62E-04
770.15659	3.59E-04
770.39325	-0.00126
770.62991	4.10E-04
770.86658	-3.54E-04
771.10326	9.31E-04
771.33995	-0.00165
771.57664	-9.42E-04
771.81335	-8.43E-04
772.05006	4.19E-04
772.28678	-7.13E-04
772.52351	-1.62E-04
772.76025	-0.00125
772.997	5.78E-04
773.23375	-6.05E-04
773.47052	0.00115
773.70729	-0.00129
773.94407	2.53E-05
774.18086	-0.00103
774.41765	2.42E-04
774.65446	-0.00101
774.89127	-7.36E-04
775.1281	-9.63E-04
775.36493	2.25E-04
775.60177	-8.19E-05
775.83862	9.09E-04
776.07547	-5.69E-04
776.31234	3.17E-04
776.54921	-5.37E-04
776.78609	-2.04E-04
777.02298	-0.00134
777.25988	4.28E-04
777.49679	-9.11E-04
777.7337	2.72E-04
777.97063	-5.72E-04
778.20756	6.01E-04
778.4445	2.74E-05
778.68145	1.79E-04
778.91841	-0.00127
779.15537	-1.36E-04
779.39235	-7.20E-04
779.62933	-5.52E-04
779.86632	-0.0011
780.10332	6.07E-04
780.34033	-6.03E-04
780.57734	2.39E-04
780.81437	-5.68E-04
781.0514	-2.96E-04
781.28844	-0.00119
781.52549	0.00106
781.76255	-5.86E-04
781.99961	0.00101
782.23669	-0.00133
782.47377	2.80E-04
782.71086	-1.08E-04
782.94796	0.00129
783.18507	-1.77E-04
783.42218	2.36E-05
783.6593	-3.97E-04
783.89644	1.79E-04
784.13358	-0.00125
784.37073	1.63E-04
784.60788	-0.00153
784.84505	1.40E-04
785.08222	-0.00133
785.3194	8.04E-04
785.55659	-0.00132
785.79379	5.20E-04
786.031	-0.00154
786.26821	5.68E-04
786.50544	-0.00118
786.74267	9.81E-04
786.97991	-1.29E-04
787.21716	9.93E-04
787.45441	-0.00159
787.69168	0.00114
787.92895	-8.84E-04
788.16623	-3.42E-04
788.40352	-6.56E-04
788.64081	0.00117
788.87812	-7.41E-04
789.11543	8.91E-04
789.35275	-0.00258
789.59008	9.56E-05
789.82742	-0.00148
790.06477	-3.63E-04
790.30212	-0.00243
790.53949	6.64E-04
790.77686	-0.00157
791.01424	-7.13E-05
791.25162	-0.00207
791.48902	5.64E-04
791.72642	-2.57E-04
791.96383	8.95E-04
792.20125	-0.00134
792.43868	-1.38E-04
792.67612	-0.0018
792.91356	-8.38E-05
793.15101	-3.42E-04
793.38847	8.45E-05
793.62594	-9.09E-04
793.86342	8.13E-04
794.1009	-0.00196
794.3384	6.03E-04
794.5759	-6.44E-04
794.81341	-7.88E-04
795.05092	-4.63E-04
795.28845	9.64E-04
795.52598	-0.0011
795.76352	2.83E-04
796.00107	-6.99E-04
796.23863	6.08E-05
796.4762	-0.00134
796.71377	4.27E-05
796.95135	-0.00136
797.18894	-1.77E-05
797.42654	-8.79E-04
797.66415	9.04E-04
797.90176	-6.20E-04
798.13938	-2.41E-04
798.37701	-0.00153
798.61465	4.60E-04
798.8523	-0.00134
799.08995	0.00196
799.32761	-7.86E-04
799.56528	2.24E-04
799.80296	-9.18E-04
800.04065	2.60E-04
800.27834	-7.54E-04
800.51605	7.43E-04
800.75376	-0.00131
800.99147	7.85E-04
801.2292	-7.11E-04
801.46694	6.16E-04
801.70468	4.39E-07
801.94243	2.29E-04
802.18019	-0.00102
802.41795	0.00173
802.65573	-0.00153
802.89351	-1.20E-04
803.1313	-0.00177
803.3691	2.35E-04
803.6069	-6.86E-04
803.84472	4.52E-04
804.08254	-0.00158
804.32037	2.47E-04
804.55821	-3.79E-04
804.79605	0.00164
805.03391	-0.00181
805.27177	0.0012
805.50964	-0.00148
805.74752	9.55E-04
805.9854	-2.54E-04
806.2233	6.97E-04
806.4612	-0.00188
806.69911	6.49E-04
806.93702	-4.17E-04
807.17495	3.76E-04
807.41288	-6.79E-04
807.65082	0.00121
807.88877	-0.00108
808.12673	2.49E-04
808.36469	-0.00162
808.60266	-6.29E-04
808.84064	-0.0014
809.07863	6.70E-05
809.31663	-0.00149
809.55463	6.54E-04
809.79264	-0.00224
810.03066	8.25E-04
810.26869	-2.06E-04
810.50672	0.00134
810.74477	-0.0012
810.98282	2.80E-04
811.22088	-0.00186
811.45894	-5.73E-06
811.69702	-0.00153
811.9351	9.38E-04
812.17319	-6.45E-04
812.41129	5.85E-04
812.64939	-1.03E-04
812.88751	-3.62E-05
813.12563	-0.00106
813.36376	9.62E-04
813.60189	-0.00151
813.84004	-6.62E-05
814.07819	-0.00164
814.31635	3.16E-04
814.55452	-0.00159
814.79269	0.0011
815.03088	-7.71E-04
815.26907	1.27E-05
815.50727	-0.00143
815.74547	3.23E-04
815.98369	-6.38E-04
816.22191	0.00126
816.46014	-8.58E-04
816.69838	-4.26E-04
816.93662	-0.00127
817.17488	2.75E-04
817.41314	-0.00177
817.65141	0.0013
817.88968	-5.56E-04
818.12797	0.00155
818.36626	-9.13E-05
818.60456	-6.54E-04
818.84286	-0.00126
819.08118	-3.03E-05
819.3195	0.00136
819.55783	-0.00102
819.79617	6.24E-04
820.03451	-0.00167
820.27287	6.73E-04
820.51123	2.08E-04
820.7496	-5.86E-04
820.98797	-6.58E-04
821.22636	1.83E-04
821.46475	-7.79E-04
821.70315	8.72E-04
821.94155	-7.37E-04
822.17997	6.94E-04
822.41839	-0.00148
822.65682	8.88E-04
822.89526	-0.00173
823.1337	-2.00E-04
823.37216	-0.00111
823.61062	-5.34E-04
823.84908	-2.12E-04
824.08756	8.20E-04
824.32604	-0.00292
824.56453	1.89E-04
824.80303	-8.85E-04
825.04154	-9.07E-05
825.28005	-0.00152
825.51857	3.16E-04
825.7571	-8.91E-04
825.99564	0.00115
826.23418	-4.54E-04
826.47273	0.0011
826.71129	-7.80E-04
826.94986	6.83E-04
827.18843	-0.0011
827.42701	-1.08E-04
827.6656	-0.0014
827.9042	4.58E-04
828.1428	-0.00141
828.38141	1.99E-04
828.62003	-6.61E-04
828.85866	9.80E-04
829.0973	-0.00107
829.33594	3.05E-05
829.57459	-0.00197
829.81324	-5.51E-06
830.05191	-5.78E-04
830.29058	4.24E-04
830.52926	-0.00125
830.76795	3.64E-04
831.00664	-0.00118
831.24534	9.61E-04
831.48405	-0.00144
831.72277	1.67E-04
831.96149	-0.00216
832.20023	-5.24E-04
832.43897	-0.00144
832.67771	-2.14E-04
832.91647	-0.00109
833.15523	-2.56E-04
833.394	-6.07E-04
833.63277	5.84E-04
833.87156	-0.00126
834.11035	4.47E-04
834.34915	-5.29E-04
834.58796	0.00133
834.82677	-0.00178
835.06559	3.75E-04
835.30442	-0.00121
835.54326	7.48E-04
835.7821	-4.63E-04
836.02095	0.00128
836.25981	-0.00102
836.49867	2.97E-04
836.73755	-0.00109
836.97643	6.00E-04
837.21532	-0.00186
837.45421	0.00143
837.69311	-0.00112
837.93203	8.98E-04
838.17094	-6.60E-04
838.40987	-6.50E-05
838.6488	-3.09E-04
838.88774	4.64E-04
839.12669	-0.00149
839.36564	5.96E-04
839.6046	-9.23E-04
839.84357	6.14E-04
840.08255	-0.001
840.32153	0.001
840.56052	-0.00173
840.79952	2.10E-04
841.03853	-0.00184
841.27754	-4.97E-04
841.51656	-6.65E-04
841.75559	-1.07E-04
841.99462	-5.46E-04
842.23367	5.48E-04
842.47272	-7.70E-04
842.71177	4.86E-05
842.95084	-0.00153
843.18991	-8.81E-04
843.42899	-9.29E-04
843.66807	0.00138
843.90717	-8.81E-04
844.14627	8.51E-05
844.38538	-6.78E-04
844.62449	5.16E-04
844.86361	-0.00105
845.10274	3.05E-04
845.34188	-6.88E-04
845.58102	5.92E-04
845.82018	-5.68E-04
846.05934	3.10E-05
846.2985	-5.46E-04
846.53767	-0.00124
846.77685	-2.40E-04
847.01604	8.76E-04
847.25524	-0.00115
847.49444	-6.02E-04
847.73365	-2.54E-04
847.97287	0.00168
848.21209	-0.00154
848.45132	7.75E-04
848.69056	-0.00166
848.9298	0.00145
849.16906	-9.78E-04
849.40832	0.00135
849.64758	-9.83E-04
849.88686	5.75E-04
850.12614	-0.00121
850.36543	4.48E-05
850.60472	-5.97E-04
850.84403	8.99E-04
851.08334	-0.00127
851.32265	6.32E-07
851.56198	-7.10E-04
851.80131	3.86E-04
852.04065	-0.00107
852.27999	9.50E-04
852.51935	-7.57E-04
852.75871	0.00107
852.99807	-4.95E-04
853.23745	3.60E-04
853.47683	-0.00117
853.71622	0.0013
853.95561	-0.00193
854.19502	6.23E-04
854.43443	-0.00144
854.67384	1.61E-04
854.91327	-9.04E-04
855.1527	1.22E-04
855.39214	-0.00127
855.63158	4.48E-04
855.87103	-5.78E-04
856.11049	0.00104
856.34996	-0.00177
856.58943	7.02E-04
856.82892	-0.00225
857.0684	1.60E-04
857.3079	-0.00179
857.5474	0.00191
857.78691	-7.87E-04
858.02642	2.05E-04
858.26595	-0.00168
858.50548	-6.94E-04
858.74502	-6.61E-04
858.98456	0.00126
859.22411	-4.44E-04
859.46367	2.96E-04
859.70323	-0.00106
859.94281	4.80E-04
860.18239	-0.00164
860.42197	-7.68E-04
860.66156	-0.00159
860.90116	2.74E-04
861.14077	4.46E-04
861.38039	-1.41E-04
861.62001	-9.15E-04
861.85964	9.13E-05
862.09927	-0.00181
862.33891	4.58E-04
862.57856	-0.00232
862.81822	9.79E-04
863.05788	-0.00157
863.29755	9.81E-04
863.53723	-0.00243
863.77691	-3.62E-04
864.0166	-9.95E-04
864.2563	9.53E-04
864.49601	-0.00147
864.73572	-5.52E-04
864.97544	-0.00137
865.21516	9.85E-04
865.45489	-0.00153
865.69463	5.22E-04
865.93438	-0.00216
866.17413	4.53E-04
866.41389	-0.00131
866.65366	0.0012
866.89343	-5.25E-04
867.13321	0.00103
867.373	-3.27E-04
867.6128	0.00115
867.8526	-0.00227
868.09241	4.01E-04
868.33222	-0.00222
868.57204	-2.06E-04
868.81187	-0.00227
869.05171	0.00169
869.29155	-0.00184
869.5314	8.82E-04
869.77126	-7.80E-04
870.01112	0.00119
870.25099	-0.00223
870.49087	-4.35E-05
870.73075	-0.00175
870.97064	-6.35E-04
871.21054	-0.00104
871.45044	-8.07E-05
871.69035	-8.89E-04
871.93027	-3.18E-04
872.1702	-1.00E-04
872.41013	0.00161
872.65007	-0.00141
872.89001	8.53E-04
873.12996	-7.16E-04
873.36992	-6.16E-04
873.60989	-0.0023
873.84986	4.06E-04
874.08984	-0.00282
874.32982	-4.47E-04
874.56982	-0.00146
874.80982	0.00121
875.04982	-0.00187
875.28983	-2.71E-04
875.52985	-0.00253
875.76988	0.00259
876.00991	-0.00105
876.24995	6.23E-04
876.49	-0.00155
876.73005	0.00116
876.97011	-0.00182
877.21018	0.00163
877.45025	-8.67E-04
877.69033	-2.93E-04
877.93042	-0.00311
878.17051	1.43E-04
878.41061	-0.00286
878.65072	-0.00119
878.89084	-0.00179
879.13096	0.00145
879.37108	-0.00116
879.61122	-2.90E-04
879.85136	-0.00214
880.0915	-1.02E-05
880.33166	-0.00203
880.57182	-8.80E-04
880.81199	0.00188
881.05216	-0.00186
881.29234	0.00116
881.53253	-0.00194
881.77272	2.13E-04
882.01292	-0.00174
882.25313	6.29E-04
882.49334	-3.51E-04
882.73356	0.00164
882.97379	-0.00183
883.21402	-4.93E-04
883.45426	-5.16E-04
883.69451	0.00196
883.93476	-0.00163
884.17502	0.00153
884.41529	8.91E-04
884.65556	-4.67E-04
884.89584	-0.00264
885.13613	4.50E-04
885.37642	-0.00254
885.61672	0.00147
885.85703	3.65E-04
886.09734	0.00232
886.33766	-0.0023
886.57799	-0.0011
886.81832	-0.00177
887.05866	-0.00111
887.29901	-0.00229
887.53936	-6.30E-04
887.77972	-0.00328
888.02008	0.00155
888.26045	-0.00304
888.50083	-5.01E-04
888.74122	-0.00182
888.98161	-0.00119
889.22201	-0.00223
889.46241	0.00195
889.70282	-0.0011
889.94324	-0.0019
890.18366	-0.00189
890.42409	0.00332
890.66453	-0.00364
890.90497	7.32E-04
891.14542	-0.00215
891.38588	0.00129
891.62634	3.67E-05
891.86681	0.0013
892.10729	-0.00175
892.34777	2.51E-04
892.58826	-0.00202
892.82876	7.54E-04
893.06926	-0.00215
893.30977	9.69E-05
893.55028	-6.12E-04
893.7908	5.93E-04
894.03133	-0.00215
894.27186	0.00121
894.51241	-1.33E-04
894.75295	-1.82E-04
894.99351	-0.00187
895.23407	-4.90E-04
895.47463	-0.00152
895.7152	0.00189
895.95578	-0.00312
896.19637	-4.71E-04
896.43696	-0.00322
896.67756	-4.10E-04
896.91816	-0.00342
897.15878	0.0016
897.39939	-0.00266
897.64002	0.0018
897.88065	-0.00266
898.12128	0.00128
898.36193	-0.00163
898.60258	-7.01E-04
898.84323	3.21E-04
899.08389	0.0031
899.32456	-0.00334
899.56524	0.0022
899.80592	-0.00318
900.04661	-7.40E-04
900.2873	-0.00335
900.528	0.00252
900.76871	-0.00284
901.00942	-0.00155
901.25014	-0.00357
901.49087	0.00378
901.7316	-0.00192
901.97234	0.00408
902.21308	-0.00366
902.45383	7.09E-04
902.69459	-0.00169
902.93535	-3.48E-04
903.17612	-9.29E-04
903.4169	0.00159
903.65768	-0.00229
903.89847	9.51E-04
904.13926	-0.00121
904.38006	0.00246
904.62087	-0.00508
904.86169	1.93E-04
905.10251	-0.00382
905.34333	9.39E-04
905.58416	1.94E-04
905.825	0.00173
906.06585	-0.00241
906.3067	0.00114
906.54756	-0.00254
906.78842	-3.77E-04
907.02929	-0.00375
907.27017	0.0025
907.51105	-0.00335
907.75194	5.95E-04
907.99283	-0.0027
908.23373	1.14E-04
908.47464	-0.00258
908.71555	0.00311
908.95647	-0.00478
909.1974	0.00151
909.43833	-0.00176
909.67927	0.00139
909.92021	-0.00115
910.16116	0.00105
910.40212	-0.00193
910.64308	0.00359
910.88405	-0.0034
911.12503	6.12E-04
911.36601	-0.00206
911.607	0.0023
911.84799	-0.00191
912.08899	0.00189
912.33	-0.00347
912.57101	0.00299
912.81203	-0.00273
913.05305	-2.95E-04
913.29408	-0.00198
913.53512	4.02E-04
913.77616	-6.38E-04
914.01721	0.00204
914.25827	-0.00437
914.49933	8.39E-04
914.74039	-9.57E-04
914.98147	6.31E-04
915.22255	-0.00329
915.46363	6.14E-05
915.70472	-0.00262
915.94582	9.23E-04
916.18693	-0.00198
916.42804	5.79E-04
916.66915	-0.00183
916.91027	0.00339
917.1514	-0.00306
917.39254	0.00378
917.63368	-0.00316
917.87482	0.00108
918.11597	-0.00589
918.35713	0.00148
918.5983	-0.00108
918.83947	-0.00179
919.08064	-0.0056
919.32183	0.00138
919.56301	-0.00251
919.80421	0.00195
920.04541	-0.0049
920.28662	0.00165
920.52783	-0.00356
920.76905	0.00233
921.01027	-0.00131
921.2515	0.0022
921.49274	1.92E-04
921.73398	0.00336
921.97523	-0.00253
922.21648	-2.86E-04
922.45774	-0.0032
922.69901	4.88E-05
922.94028	-0.00301
923.18156	0.00182
923.42285	-0.00208
923.66414	0.00255
923.90543	-0.00361
924.14673	0.00175
924.38804	-0.00221
924.62936	0.00371
924.87068	-0.0057
925.112	0.00304
925.35333	-0.00306
925.59467	0.00209
925.83602	-0.00492
926.07737	0.0018
926.31872	-0.00558
926.56008	5.29E-04
926.80145	-0.00331
927.04282	0.00299
927.2842	-0.00216
927.52559	7.01E-04
927.76698	-0.00541
928.00837	9.76E-04
928.24978	-0.00385
928.49119	0.00398
928.7326	-0.00428
928.97402	-2.37E-04
929.21545	-0.00325
929.45688	2.06E-04
929.69832	-7.34E-04
929.93976	0.00336
930.18121	-0.0034
930.42267	8.72E-05
930.66413	-0.00169
930.90559	0.00178
931.14707	-0.00409
931.38855	0.00122
931.63003	-0.00157
931.87152	0.00158
932.11302	-0.00114
932.35452	0.00413
932.59603	-0.00303
932.83754	0.0037
933.07906	-3.18E-04
933.32059	0.00241
933.56212	-0.0022
933.80365	0.00184
934.0452	-0.00452
934.28674	0.00153
934.5283	-0.00148
934.76986	0.00191
935.01142	-0.00392
935.253	0.00193
935.49457	-0.00342
935.73616	-1.86E-04
935.97774	-0.00283
936.21934	6.99E-04
936.46094	-0.00177
936.70254	0.0018
936.94416	-0.00612
937.18577	0.00273
937.4274	-0.00471
937.66903	2.97E-04
937.91066	-0.00522
938.1523	0.00128
938.39395	-0.0026
938.6356	0.00242
938.87726	-0.00164
939.11892	0.00648
939.36059	-0.00381
939.60226	0.00416
939.84394	-0.00475
940.08563	0.00272
940.32732	-0.00674
940.56902	0.00283
940.81072	-0.00455
941.05243	0.00263
941.29414	-0.00419
941.53586	-0.00207
941.77759	-0.00474
942.01932	-2.25E-04
942.26106	-0.0013
942.5028	-9.83E-04
942.74455	0.00355
942.9863	-0.00143
943.22806	3.71E-04
943.46983	-0.00341
943.7116	0.00263
943.95337	-0.00305
944.19516	4.80E-05
944.43694	-0.00409
944.67874	-7.26E-04
944.92054	-0.0053
945.16234	-8.24E-04
945.40415	-0.00422
945.64596	4.74E-04
945.88779	-0.00556
946.12961	0.00263
946.37145	-0.00467
946.61328	0.00136
946.85513	-0.00191
947.09698	-0.00151
947.33883	-0.00385
947.58069	-2.13E-04
947.82256	-0.00528
948.06443	0.0023
948.3063	-7.65E-04
948.54819	0.00288
948.79007	-0.00644
949.03197	0.00338
949.27387	-0.0045
949.51577	-1.42E-04
949.75768	-0.00663
949.9996	-5.69E-04
950.24152	-0.00541
950.48344	0.00247
950.72538	-0.00434
950.96731	0.00168
951.20926	-0.00175
951.45121	-3.53E-04
951.69316	-0.00407
951.93512	0.00274
952.17708	-0.00382
952.41906	0.00413
952.66103	-0.00111
952.90301	0.00282
953.145	-0.00169
953.38699	0.00198
953.62899	-0.00553
953.87099	0.00338
954.113	-0.00683
954.35502	0.00179
954.59704	-0.00273
954.83906	-0.00412
955.08109	0.00167
955.32313	0.00473
955.56517	-0.00653
955.80722	8.96E-04
956.04927	-0.00315
956.29133	0.00163
956.53339	-0.003
956.77546	0.0046
957.01753	-0.00363
957.25961	-5.63E-04
957.5017	-0.00545
957.74379	-8.21E-04
957.98588	-0.00347
958.22798	0.0011
958.47009	-0.00644
958.7122	0.00325
958.95432	-0.00656
959.19644	0.00229
959.43857	-0.00334
959.6807	9.40E-04
959.92284	-0.00361
960.16498	0.00359
960.40713	-0.00633
960.64929	0.00373
960.89145	-0.00301
961.13361	8.69E-04
961.37578	-0.00338
961.61796	0.00577
961.86014	-0.00485
962.10233	0.00113
962.34452	-0.00146
962.58671	0.00271
962.82892	-0.0025
963.07112	0.00445
963.31334	-0.00539
963.55556	0.00207
963.79778	9.33E-04
964.04001	9.38E-04
964.28224	-0.00654
964.52448	0.00281
964.76673	-0.00386
965.00898	-0.00165
965.25123	-0.00493
965.49349	0.00288
965.73576	-0.00117
965.97803	0.00161
966.22031	-0.00589
966.46259	0.00133
966.70488	-0.00696
966.94717	-3.18E-04
967.18946	7.56E-05
967.43177	0.00232
967.67408	-0.0037
967.91639	-0.00205
968.15871	-0.0048
968.40103	0.00169
968.64336	-0.0071
968.88569	0.00518
969.12803	-0.00513
969.37038	0.00424
969.61273	-0.00821
969.85508	0.00667
970.09744	-0.00552
970.3398	9.37E-04
970.58218	-0.00585
970.82455	0.00216
971.06693	-0.01081
971.30932	0.00348
971.55171	-0.00422
971.7941	0.00331
972.03651	-0.00869
972.27891	-0.002
972.52132	-0.00324
972.76374	0.00382
973.00616	-0.00386
973.24859	-2.54E-05
973.49102	-0.00795
973.73346	7.47E-04
973.9759	-0.00329
974.21835	0.00454
974.4608	-0.00353
974.70326	-2.14E-04
974.94572	-0.01075
975.18819	2.19E-04
975.43066	-0.01097
975.67314	5.50E-04
975.91562	-0.00465
976.15811	6.38E-04
976.40061	-0.00247
976.6431	0.00156
976.88561	-0.00346
977.12812	0.00244
977.37063	-0.00419
977.61315	0.00266
977.85567	-0.00402
978.0982	0.00858
978.34074	-0.00716
978.58327	0.00118
978.82582	-0.00895
979.06837	0.00174
979.31092	-0.00629
979.55348	0.00111
979.79604	-0.00595
980.03861	0.00563
980.28119	-0.00298
980.52377	0.00355
980.76635	-0.00326
981.00894	-3.27E-04
981.25154	-0.00533
981.49413	0.00263
981.73674	-0.00294
981.97935	5.81E-04
982.22196	-0.01207
982.46458	0.00458
982.70721	-0.00603
982.94983	0.0054
983.19247	-0.00961
983.43511	-8.73E-04
983.67775	6.50E-05
983.9204	0.00488
984.16306	-0.00142
984.40571	0.00514
984.64838	-0.0039
984.89105	0.00335
985.13372	-0.00339
985.3764	0.00487
985.61908	-0.0096
985.86177	1.98E-04
986.10447	-9.17E-04
986.34716	0.00168
986.58987	-0.00481
986.83258	0.00341
987.07529	-0.00768
987.31801	6.46E-04
987.56073	-0.0107
987.80346	0.00339
988.04619	-0.00329
988.28893	0.00339
988.53167	-0.00581
988.77442	-0.00206
989.01717	-0.00577
989.25993	4.28E-04
989.50269	-0.00819
989.74546	-0.00161
989.98823	-0.00818
990.23101	-0.003
990.47379	-0.00156
990.71657	0.00491
990.95937	-8.03E-04
991.20216	9.58E-04
991.44496	-0.00403
991.68777	0.00265
991.93058	-0.0037
992.17339	0.00252
992.41621	-0.01254
992.65904	0.0016
992.90187	-0.00948
993.1447	0.0061
993.38754	8.52E-04
993.63039	-7.43E-05
993.87324	-0.00358
994.11609	0.00122
994.35895	-0.00884
994.60181	0.00285
994.84468	-0.00665
995.08755	-0.00484
995.33043	-0.01183
995.57331	0.00105
995.8162	-0.01148
996.05909	-9.80E-04
996.30199	-0.01183
996.54489	0.00548
996.7878	-0.00531
997.03071	0.00152
997.27363	-0.00853
997.51655	0.00756
997.75947	-0.00934
998.0024	-0.005
998.24534	-0.00762
998.48828	0.00242
998.73122	-0.00604
998.97417	-0.00647
999.21712	-0.01304
999.46008	-0.00212
999.70304	-0.00337
999.94601	0.00479
1000.18898	-0.01077
1000.43196	0.0024
1000.67494	-0.01515
1000.91793	0.00299
1001.16092	-0.00961
1001.40392	0.00737
1001.64692	-0.00708
1001.88992	-8.56E-04
1002.13293	-0.00414
1002.37595	0.0114
1002.61897	-0.01738
1002.86199	9.81E-04
1003.10502	-0.00461
1003.34805	0.01808
1003.59109	-0.00867
1003.83413	0.01366
1004.07718	-0.00971
1004.32023	-0.00346
1004.56329	-7.67E-04
1004.80635	-0.01013
1005.04941	-0.00556
1005.29248	-0.01394
1005.53556	0.01
1005.77864	-0.01469
1006.02172	7.55E-04
1006.26481	-0.00314
1006.5079	7.12E-04
1006.751	-0.01281
1006.9941	-0.00859
1007.23721	-0.01111
1007.48032	2.29E-04
1007.72344	-0.01126
1007.96656	0.00614
1008.20968	-0.01252
1008.45281	-5.62E-05
1008.69595	-0.01776
1008.93909	0.00417
1009.18223	-0.0114
1009.42538	6.25E-05
1009.66853	-0.01563
1009.91169	0.00578
1010.15485	-0.01291
1010.39801	-0.00206
1010.64118	-0.01246
1010.88436	0.00278
1011.12754	-0.01172
1011.37072	0.00389
1011.61391	-0.01135
1011.8571	0.00542
1012.1003	-0.00532
1012.3435	0.01507
1012.58671	-0.01721
1012.82992	0.01085
1013.07314	-0.01193
1013.31636	4.76E-06
1013.55958	-0.00593
1013.80281	-0.00342
1014.04604	-0.01572
1014.28928	-0.00235
1014.53252	-0.00919
1014.77577	0
1015.01902	0
1015.26228	0
1015.50554	0
1015.7488	0
1015.99207	0
1016.23535	0
1016.47862	0
1016.72191	0
1016.96519	0
1017.20848	0
1017.45178	0
1017.69508	0
1017.93838	0
1018.18169	0
1018.425	0
1018.66832	0
1018.91164	0
1019.15497	0
1019.3983	0
1019.64164	0
1019.88498	0
1020.12832	0
1020.37167	0
1020.61502	0
1020.85838	0
1021.10174	0
1021.3451	0
1021.58847	0
1021.83185	0
1022.07523	0
1022.31861	0
1022.562	0
1022.80539	0
1023.04878	0
1023.29218	0
1023.53559	0
1023.779	0
1024.02241	0
1024.26583	0
1024.50925	0
1024.75268	0
1024.99611	0
1025.23954	0
1025.48298	0
1025.72642	0
1025.96987	0
1026.21332	0
1026.45678	0
1026.70024	0
1026.9437	0
1027.18717	0
1027.43064	0