WAVELENGTH	NORM_INTENSITY
199.97546	0
200.17692	0
200.37839	0
200.57989	0
200.7814	0
200.98293	0
201.18448	0
201.38605	0
201.58764	0
201.78925	0
201.99087	0
202.19252	0
202.39418	0
202.59586	0
202.79756	0
202.99928	0
203.20102	0
203.40278	0
203.60455	0
203.80635	0
204.00816	0
204.20999	0
204.41184	0
204.61371	0
204.8156	0
205.0175	0
205.21943	0
205.42137	0
205.62334	0
205.82532	0
206.02732	0
206.22934	0
206.43137	0
206.63343	0
206.83551	0
207.0376	0
207.23971	0
207.44184	0
207.64399	0
207.84616	0
208.04835	0
208.25055	0
208.45278	0
208.65502	0
208.85728	0
209.05956	0
209.26186	0
209.46418	0
209.66651	0
209.86887	0
210.07124	0
210.27363	0
210.47604	0
210.67847	0
210.88092	0
211.08338	0
211.28587	0
211.48837	0
211.69089	0
211.89343	0
212.09599	0
212.29857	0
212.50117	0
212.70378	0
212.90641	0
213.10907	0
213.31174	0
213.51442	0
213.71713	0
213.91986	0
214.1226	0
214.32537	0
214.52815	0
214.73095	0
214.93376	0
215.1366	0
215.33946	0
215.54233	0
215.74522	0
215.94813	0
216.15106	0
216.35401	0
216.55698	0
216.75996	0
216.96297	0
217.16599	0
217.36903	0
217.57209	0
217.77517	0
217.97826	0
218.18138	0
218.38451	0
218.58766	0
218.79083	0
218.99402	0
219.19722	0
219.40045	0
219.60369	0
219.80695	0
220.01023	0
220.21353	0
220.41685	0
220.62018	0
220.82354	0
221.02691	0
221.2303	0
221.43371	0
221.63713	0
221.84058	0
222.04404	0
222.24753	0
222.45103	0
222.65455	0
222.85808	0
223.06164	0
223.26521	0
223.46881	0
223.67242	0
223.87605	0
224.07969	0
224.28336	0
224.48704	0
224.69075	0
224.89447	0
225.0982	0
225.30196	0
225.50574	0
225.70953	0
225.91334	0
226.11717	0
226.32102	0
226.52489	0
226.72878	0
226.93268	0
227.1366	0
227.34054	0
227.5445	0
227.74848	0
227.95247	0
228.15649	0
228.36052	0
228.56457	0
228.76863	0
228.97272	0
229.17683	0
229.38095	0
229.58509	0
229.78925	0
229.99343	0
230.19762	0
230.40183	0
230.60607	0
230.81032	0
231.01459	0
231.21887	0
231.42318	0
231.6275	0
231.83184	0
232.0362	0
232.24058	0
232.44497	0
232.64939	0
232.85382	0
233.05827	0
233.26274	0
233.46722	0
233.67173	0
233.87625	0
234.08079	0
234.28535	0
234.48993	0
234.69452	0
234.89914	0
235.10377	0
235.30842	0
235.51309	0
235.71777	0
235.92248	0
236.1272	0
236.33194	0
236.5367	0
236.74147	0
236.94627	0
237.15108	0
237.35591	0
237.56076	0
237.76563	0
237.97051	0
238.17541	0
238.38033	0
238.58527	0
238.79023	0
238.9952	0
239.2002	0
239.40521	0
239.61024	0
239.81529	0
240.02035	0
240.22543	0
240.43053	0
240.63565	0
240.84079	0
241.04595	0
241.25112	0
241.45631	0
241.66152	0
241.86675	0
242.07199	0
242.27726	0
242.48254	0
242.68784	0
242.89315	0
243.09849	0
243.30384	0
243.50921	0
243.7146	0
243.92001	0
244.12543	0
244.33087	0
244.53633	0
244.74181	0
244.94731	0
245.15282	0
245.35836	0
245.56391	0
245.76948	0
245.97506	0
246.18067	0
246.38629	0
246.59193	0
246.79758	0
247.00326	0
247.20895	0
247.41466	0
247.62039	0
247.82614	0
248.03191	0
248.23769	0
248.44349	0
248.64931	0
248.85514	0
249.061	0
249.26687	0
249.47276	0
249.67867	0
249.88459	0
250.09054	0
250.2965	0
250.50248	0
250.70847	0
250.91449	0
251.12052	0
251.32657	0
251.53264	0
251.73872	0
251.94483	0
252.15095	0
252.35709	0
252.56325	0
252.76942	0
252.97561	0
253.18182	0
253.38805	0
253.5943	0
253.80056	0
254.00684	0
254.21314	0
254.41946	0
254.62579	0
254.83214	0
255.03851	0
255.2449	0
255.45131	0
255.65773	0
255.86417	0
256.07063	0
256.27711	0
256.4836	0
256.69011	0
256.89664	0
257.10319	0
257.30975	0
257.51634	0
257.72294	0
257.92955	0
258.13619	0
258.34284	0
258.54951	0
258.7562	0
258.96291	0
259.16963	0
259.37637	0
259.58313	0
259.78991	0
259.9967	0
260.20351	0
260.41034	0
260.61719	0
260.82406	0
261.03094	0
261.23784	0
261.44476	0
261.65169	0
261.85864	0
262.06561	0
262.2726	0
262.47961	0
262.68663	0
262.89367	0
263.10073	0
263.30781	0
263.5149	0
263.72201	0
263.92914	0
264.13629	0
264.34345	0
264.55063	0
264.75783	0
264.96505	0
265.17228	0
265.37953	0
265.5868	0
265.79409	0
266.00139	0
266.20871	0
266.41605	0
266.62341	0
266.83078	0
267.03817	0
267.24558	0
267.45301	0
267.66045	0
267.86791	0
268.07539	0
268.28289	0
268.4904	0
268.69793	0
268.90548	0
269.11305	0
269.32063	0
269.52823	0
269.73585	0
269.94349	0
270.15114	0
270.35881	0
270.5665	0
270.77421	0
270.98193	0
271.18967	0
271.39743	0
271.60521	0
271.813	0
272.02081	0
272.22864	0
272.43648	0
272.64434	0
272.85222	0
273.06012	0
273.26804	0
273.47597	0
273.68392	0
273.89188	0
274.09987	0
274.30787	0
274.51589	0
274.72392	0
274.93198	0
275.14005	0
275.34814	0
275.55624	0
275.76437	0
275.97251	0
276.18066	0
276.38884	0
276.59703	0
276.80524	0
277.01347	0
277.22171	0
277.42997	0
277.63825	0
277.84655	0
278.05486	0
278.26319	0
278.47154	0
278.6799	0
278.88829	0
279.09669	0
279.3051	0
279.51354	0
279.72199	0
279.93046	0
280.13894	0
280.34745	0
280.55597	0
280.7645	0
280.97306	0
281.18163	0
281.39022	0
281.59883	0
281.80745	0
282.01609	0
282.22475	0
282.43342	0
282.64212	0
282.85083	0
283.05955	0
283.2683	0
283.47706	0
283.68584	0
283.89463	0
284.10345	0
284.31228	0
284.52112	0
284.72999	0
284.93887	0
285.14777	0
285.35668	0
285.56562	0
285.77457	0
285.98353	0
286.19252	0
286.40152	0
286.61054	0
286.81957	0
287.02863	0
287.2377	0
287.44678	0
287.65589	0
287.86501	0
288.07415	0
288.2833	0
288.49248	0
288.70167	0
288.91087	0
289.1201	0
289.32934	0
289.53859	0
289.74787	0
289.95716	0
290.16647	0
290.3758	0
290.58514	0
290.7945	0
291.00388	0
291.21327	0
291.42268	0
291.63211	0
291.84156	0
292.05102	0
292.2605	0
292.47	0
292.67951	0
292.88904	0
293.09859	0
293.30815	0
293.51773	0
293.72733	0
293.93695	0
294.14658	0
294.35623	0
294.56589	0
294.77558	0
294.98528	0
295.195	0
295.40473	0
295.61448	0
295.82425	0
296.03403	0
296.24384	0
296.45366	0
296.66349	0
296.87334	0
297.08321	0
297.2931	0
297.503	0
297.71292	0
297.92286	0
298.13282	0
298.34279	0
298.55277	0
298.76278	0
298.9728	0
299.18284	0
299.3929	0
299.60297	0
299.81306	0
300.02316	0
300.23329	0
300.44343	0
300.65358	0
300.86376	0
301.07395	0
301.28416	0
301.49438	0
301.70462	0
301.91488	0
302.12515	0
302.33544	0
302.54575	0
302.75608	0
302.96642	0
303.17678	0
303.38715	0
303.59755	0
303.80796	0
304.01838	0
304.22882	0
304.43928	0
304.64976	0
304.86025	0
305.07076	0
305.28129	0
305.49183	0
305.70239	0
305.91297	0
306.12356	0
306.33417	0
306.5448	0
306.75545	0
306.96611	0
307.17678	0
307.38748	0
307.59819	0
307.80892	0
308.01966	0
308.23042	0
308.4412	0
308.65199	0
308.8628	0
309.07363	0
309.28448	0
309.49534	0
309.70622	0
309.91711	0
310.12802	0
310.33895	0
310.54989	0
310.76085	0
310.97183	0
311.18283	0
311.39384	0
311.60487	0
311.81591	0
312.02697	0
312.23805	0
312.44914	0
312.66025	0
312.87138	0
313.08253	0
313.29369	0
313.50486	0
313.71606	0
313.92727	0
314.1385	0
314.34974	0
314.561	0
314.77228	0
314.98357	0
315.19488	0
315.40621	0
315.61755	0
315.82891	0
316.04029	0
316.25168	0
316.46309	0
316.67452	0
316.88596	0
317.09742	0
317.3089	0
317.52039	0
317.7319	0
317.94342	0
318.15496	0
318.36652	0
318.5781	0
318.78969	0
319.0013	0
319.21292	0
319.42456	0
319.63622	0
319.84789	0
320.05958	0
320.27129	0
320.48302	0
320.69476	0
320.90651	0
321.11828	0
321.33007	0
321.54188	0
321.7537	0
321.96554	0
322.1774	0
322.38927	0
322.60116	0
322.81306	0
323.02498	0
323.23692	0
323.44887	0
323.66084	0
323.87283	0
324.08483	0
324.29685	0
324.50889	0
324.72094	0
324.93301	0
325.14509	0
325.35719	0
325.56931	0
325.78145	0
325.9936	0
326.20576	0
326.41795	0
326.63015	0
326.84236	0
327.0546	0
327.26684	0
327.47911	0
327.69139	0
327.90369	0
328.116	0
328.32833	0
328.54068	0
328.75304	0
328.96542	0
329.17782	0
329.39023	0
329.60266	0
329.8151	0
330.02756	0
330.24004	0
330.45253	0
330.66504	0
330.87757	0
331.09011	0
331.30267	0
331.51525	0
331.72784	0
331.94045	0
332.15307	0
332.36571	0
332.57837	0
332.79104	0
333.00373	0
333.21643	0
333.42915	0
333.64189	0
333.85464	0
334.06741	0
334.2802	0
334.493	0
334.70582	0
334.91866	0
335.13151	0
335.34437	0
335.55726	0
335.77016	0
335.98307	0
336.196	0
336.40895	0
336.62192	0
336.8349	0
337.04789	0
337.26091	0
337.47394	0
337.68698	0
337.90004	0
338.11312	0
338.32621	0
338.53932	0
338.75245	0
338.96559	0
339.17875	0
339.39192	0
339.60511	0
339.81832	0
340.03154	0
340.24478	0
340.45804	0
340.67131	0
340.88459	0
341.0979	0
341.31122	0
341.52455	0
341.7379	0
341.95127	0
342.16465	0
342.37805	0
342.59147	0
342.8049	0
343.01835	0
343.23181	0
343.44529	0
343.65879	0
343.8723	0
344.08583	0
344.29937	0
344.51293	0
344.72651	0
344.9401	0
345.15371	0
345.36733	0
345.58097	0
345.79463	0
346.0083	0
346.22199	0
346.43569	0
346.64941	0
346.86315	0
347.0769	0
347.29067	0
347.50446	0
347.71826	0
347.93207	0
348.1459	0
348.35975	0
348.57362	0
348.78749	0
349.00139	0
349.2153	0
349.42923	0
349.64317	0
349.85713	0
350.07111	0
350.2851	0
350.49911	0
350.71313	0
350.92717	0
351.14122	0
351.3553	0
351.56938	0
351.78349	0
351.9976	0
352.21174	0
352.42589	0
352.64005	0
352.85424	0
353.06844	0
353.28265	0
353.49688	0
353.71112	0
353.92539	0
354.13966	0
354.35396	0
354.56827	0
354.78259	0
354.99693	0
355.21129	0
355.42566	0
355.64005	0
355.85445	0
356.06887	0
356.28331	0
356.49776	0
356.71223	0
356.92671	0
357.14121	0
357.35572	0
357.57025	0
357.7848	0
357.99936	0
358.21394	0
358.42853	0
358.64314	0
358.85777	0
359.07241	0
359.28706	0
359.50173	0
359.71642	0
359.93113	0
360.14585	0
360.36058	0
360.57533	0
360.7901	0
361.00488	0
361.21968	0
361.43449	0
361.64932	0
361.86417	0
362.07903	0
362.29391	0
362.5088	0
362.72371	0
362.93863	0
363.15357	0
363.36852	0
363.58349	0
363.79848	0
364.01348	0
364.2285	0
364.44353	0
364.65858	0
364.87365	0
365.08873	0
365.30382	0
365.51894	0
365.73406	0
365.94921	0
366.16436	0
366.37954	0
366.59473	0
366.80993	0
367.02515	0
367.24039	0
367.45564	0
367.67091	0
367.88619	0
368.10149	0
368.31681	0
368.53214	0
368.74748	0
368.96285	0
369.17822	0
369.39361	0
369.60902	0
369.82445	0
370.03989	0
370.25534	0
370.47081	0
370.6863	0
370.9018	0
371.11731	0
371.33285	0
371.54839	0
371.76396	0
371.97954	0
372.19513	0
372.41074	0
372.62637	0
372.84201	0
373.05766	0
373.27334	0
373.48902	0
373.70473	0
373.92044	0
374.13618	0
374.35193	0
374.56769	0
374.78347	0
374.99927	0
375.21508	0
375.43091	0
375.64675	0
375.86261	0
376.07848	0
376.29437	0
376.51027	0
376.72619	0
376.94213	0
377.15808	0
377.37404	0
377.59002	0
377.80602	0
378.02203	0
378.23806	0
378.4541	0
378.67016	0
378.88623	0
379.10232	0
379.31842	0
379.53454	0
379.75068	0
379.96683	0
380.183	0
380.39918	0
380.61537	0
380.83158	0
381.04781	0
381.26405	0
381.48031	0
381.69659	-0.00766
381.91287	2.61E-03
382.12918	-0.0116
382.3455	0.00357
382.56183	-5.98E-03
382.77818	-9.59E-04
382.99455	3.27E-03
383.21093	-0.0011
383.42732	-0.00195
383.64373	0.0021
383.86016	-0.00337
384.0766	0.00272
384.29306	-5.36E-03
384.50953	-3.43E-04
384.72602	-1.72E-03
384.94252	0.00825
385.15904	-0.01183
385.37557	2.89E-05
385.59212	-4.03E-03
385.80868	-0.00116
386.02526	-0.00372
386.24186	0.00383
386.45847	-0.00219
386.67509	-0.00169
386.89173	-9.14E-04
387.10839	0.00265
387.32506	-0.00146
387.54174	5.41E-04
387.75844	0.00145
387.97516	0.00489
388.19189	-0.00118
388.40864	1.96E-04
388.6254	-4.46E-03
388.84218	-0.00239
389.05897	-0.00613
389.27578	0.00396
389.4926	-0.00493
389.70944	-4.57E-04
389.92629	-0.0059
390.14316	8.91E-04
390.36004	-0.00153
390.57694	0.00215
390.79385	-0.00496
391.01078	8.20E-04
391.22773	-1.42E-03
391.44469	4.82E-04
391.66166	-0.00504
391.87865	0.00148
392.09566	-5.32E-03
392.31268	-0.00451
392.52971	-0.00349
392.74676	0.0031
392.96383	-0.00579
393.18091	0.00282
393.398	-3.45E-03
393.61511	0.00426
393.83224	-2.23E-04
394.04938	0.00127
394.26653	-0.00358
394.48371	0.00156
394.70089	-0.00294
394.91809	0.00285
395.13531	-4.20E-04
395.35254	0.00261
395.56979	-0.0026
395.78705	9.57E-04
396.00433	-0.00634
396.22162	0.00292
396.43892	-0.0048
396.65625	0.00256
396.87358	-3.20E-03
397.09094	0.00115
397.3083	-0.00316
397.52568	0.00516
397.74308	-3.61E-03
397.96049	0.0015
398.17792	-0.00175
398.39536	0.00158
398.61282	-4.76E-03
398.83029	-6.20E-05
399.04778	-2.73E-03
399.26528	-0.00219
399.4828	-0.00529
399.70033	8.27E-04
399.91788	-2.61E-03
400.13544	0.00315
400.35302	0.00143
400.57061	0.00518
400.78822	-0.00497
401.00584	-2.89E-04
401.22348	-0.00151
401.44113	-4.21E-04
401.6588	-0.00111
401.87648	-6.20E-04
402.09418	-0.00232
402.31189	-0.00156
402.52962	-0.00434
402.74736	0.00265
402.96512	5.08E-04
403.18289	0.00225
403.40067	-0.00295
403.61848	0.00173
403.83629	-0.00385
404.05412	3.71E-04
404.27197	-0.00255
404.48983	-0.00118
404.70771	7.79E-04
404.9256	0.00113
405.14351	-0.00171
405.36143	0.00224
405.57936	-0.00144
405.79731	0.0015
406.01528	-0.00468
406.23326	-0.00238
406.45126	-0.00162
406.66927	0.00149
406.88729	6.82E-04
407.10533	7.16E-04
407.32339	-0.00402
407.54146	2.80E-04
407.75954	-9.36E-04
407.97764	4.66E-04
408.19576	-5.55E-04
408.41389	0.00163
408.63203	0.00131
408.85019	-0.00299
409.06836	0.0011
409.28655	-0.00212
409.50476	0.00262
409.72297	-0.00224
409.94121	0.0015
410.15946	-0.00229
410.37772	0.00285
410.596	-0.00197
410.81429	0.00131
411.0326	-0.00106
411.25092	0.00175
411.46925	-7.65E-04
411.68761	-0.00213
411.90597	-0.00139
412.12435	1.82E-04
412.34275	-0.0022
412.56116	0.00161
412.77959	-0.00121
412.99803	-0.00161
413.21648	-5.48E-04
413.43495	0.00191
413.65344	-0.00117
413.87193	0.0022
414.09045	0.00113
414.30898	0.00122
414.52752	0.00117
414.74608	-1.93E-04
414.96465	-7.78E-04
415.18324	0.00224
415.40184	-6.02E-04
415.62046	6.94E-04
415.83909	-0.00178
416.05774	0.00121
416.2764	-0.00101
416.49508	1.22E-04
416.71377	-0.00276
416.93247	-3.19E-04
417.15119	-0.00378
417.36993	0.0016
417.58868	0.00174
417.80744	0.00583
418.02622	-0.00396
418.24501	-1.58E-04
418.46382	-0.00138
418.68264	0.00198
418.90148	-0.00186
419.12033	0.00106
419.3392	-0.00425
419.55808	5.88E-04
419.77698	-5.45E-05
419.99589	0.00309
420.21481	5.62E-04
420.43375	-0.00174
420.65271	-5.36E-05
420.87167	0.00385
421.09066	-0.00127
421.30966	0.00398
421.52867	-0.00202
421.7477	0.00169
421.96674	3.93E-04
422.1858	0.00386
422.40487	6.89E-04
422.62395	0.0017
422.84305	-0.00133
423.06217	-5.39E-05
423.2813	1.64E-04
423.50044	0.00435
423.7196	-9.05E-04
423.93878	0.00408
424.15796	-1.62E-04
424.37717	6.87E-04
424.59638	0.002
424.81561	3.92E-05
425.03486	0.00114
425.25412	0.00181
425.4734	-0.00279
425.69269	-0.00104
425.91199	-0.00212
426.13131	0.00345
426.35064	6.31E-04
426.56999	0.00169
426.78935	0.00143
427.00873	0.00167
427.22812	0.00341
427.44753	0.0036
427.66695	5.52E-04
427.88638	0.00332
428.10583	0.0011
428.3253	0.00304
428.54477	0.0024
428.76427	0.00487
428.98377	0.00335
429.2033	0.00414
429.42283	0.00117
429.64238	0.00371
429.86195	0.00208
430.08153	0.00201
430.30112	0.00184
430.52073	0.00513
430.74035	0.00146
430.95999	0.00674
431.17964	0.00196
431.39931	0.0071
431.61899	0.00417
431.83868	0.00977
432.05839	0.00491
432.27812	0.00425
432.49785	0.00296
432.71761	0.00701
432.93737	0.00531
433.15716	0.00538
433.37695	0.00613
433.59676	0.00719
433.81659	0.00679
434.03643	0.00845
434.25628	0.00439
434.47615	0.00856
434.69603	0.00692
434.91593	0.00966
435.13584	0.0052
435.35576	0.00819
435.5757	0.00604
435.79565	0.00972
436.01562	0.00764
436.23561	0.00921
436.4556	0.00649
436.67561	0.00769
436.89564	0.00685
437.11568	0.01001
437.33573	0.00762
437.5558	0.00946
437.77589	0.00548
437.99598	0.01001
438.21609	0.00651
438.43622	0.00767
438.65636	0.00714
438.87651	0.01066
439.09668	0.00787
439.31687	0.00923
439.53706	0.00721
439.75727	0.00691
439.9775	0.00649
440.19774	0.0099
440.41799	0.00615
440.63826	0.00862
440.85855	0.00638
441.07884	0.00876
441.29915	0.00502
441.51948	0.00703
441.73982	0.00549
441.96017	0.01044
442.18054	0.004
442.40092	0.00672
442.62132	0.00571
442.84173	0.00745
443.06216	0.00595
443.2826	0.00531
443.50305	0.00421
443.72352	0.00552
443.944	0.0049
444.1645	0.00689
444.38501	0.00627
444.60553	0.00445
444.82607	0.0061
445.04662	0.00708
445.26719	9.43E-04
445.48777	0.00594
445.70837	0.004
445.92898	0.00543
446.1496	0.00487
446.37024	0.00816
446.59089	0.00384
446.81156	0.00684
447.03224	0.00493
447.25293	0.00463
447.47364	0.00328
447.69436	0.00598
447.9151	0.00456
448.13585	0.00643
448.35662	0.00515
448.5774	0.00776
448.79819	0.00455
449.019	0.00672
449.23982	0.00221
449.46065	0.00565
449.6815	0.00302
449.90237	0.0027
450.12325	0.00474
450.34414	0.00511
450.56504	0.003
450.78597	-1.54E-04
451.0069	-3.89E-04
451.22785	0.00558
451.44881	0.00405
451.66979	0.00677
451.89078	0.00322
452.11178	0.00644
452.3328	0.00178
452.55383	0.00517
452.77488	0.00485
452.99594	0.00384
453.21702	9.91E-04
453.43811	0.006
453.65921	0.00219
453.88032	0.00616
454.10146	4.04E-03
454.3226	0.00819
454.54376	0.00398
454.76493	0.00503
454.98612	0.00188
455.20732	0.00468
455.42854	9.11E-04
455.64976	0.0048
455.87101	0.00369
456.09226	0.00633
456.31354	2.65E-03
456.53482	0.00408
456.75612	2.81E-03
456.97743	0.0051
457.19876	0.00292
457.4201	0.00282
457.64145	0.00262
457.86282	0.00208
458.08421	0.00265
458.3056	0.00274
458.52701	0.00369
458.74844	0.00444
458.96988	0.00374
459.19133	0.00412
459.41279	0.0033
459.63427	0.00417
459.85577	0.00277
460.07728	0.00214
460.2988	0.00224
460.52033	0.00291
460.74188	0.003
460.96345	0.00363
461.18502	-0.00102
461.40662	0.00289
461.62822	9.50E-04
461.84984	0.00318
462.07147	7.74E-04
462.29312	0.00536
462.51478	5.39E-04
462.73645	0.00378
462.95814	1.15E-03
463.17984	0.00375
463.40156	1.49E-03
463.62329	0.00432
463.84503	0.00238
464.06679	0.00418
464.28856	2.73E-03
464.51035	0.00368
464.73215	0.00318
464.95396	0.00276
465.17579	0.0048
465.39763	8.75E-04
465.61948	0.00309
465.84135	0.00109
466.06323	0.00386
466.28513	0.0021
466.50704	0.00242
466.72896	1.01E-03
466.9509	0.00376
467.17285	0.00249
467.39481	0.00278
467.61679	0.00118
467.83878	0.0042
468.06079	0.00135
468.28281	0.00258
468.50484	0.00123
468.72689	0.00301
468.94895	0.00226
469.17103	0.00318
469.39312	-2.40E-04
469.61522	0.00304
469.83733	-1.42E-04
470.05946	0.00316
470.28161	4.12E-04
470.50376	0.00323
470.72594	0.00209
470.94812	0.00309
471.17032	0.00132
471.39253	0.00225
471.61476	0.00112
471.837	0.00301
472.05925	0.00145
472.28152	0.00338
472.5038	0.0025
472.72609	0.00257
472.9484	0.00203
473.17072	0.00262
473.39305	6.38E-04
473.6154	0.00425
473.83777	-1.52E-04
474.06014	0.00232
474.28253	8.93E-04
474.50494	0.00273
474.72735	0.00159
474.94978	0.00321
475.17223	0.00162
475.39469	0.00347
475.61716	0.0016
475.83964	0.0036
476.06214	5.68E-04
476.28465	0.00165
476.50718	4.42E-04
476.72972	0.00297
476.95227	0.0019
477.17484	0.00193
477.39742	0.00114
477.62001	0.00212
477.84262	0.00197
478.06524	0.00304
478.28788	0.00112
478.51053	0.00378
478.73319	-4.45E-04
478.95586	0.00204
479.17855	3.41E-04
479.40126	0.00249
479.62397	-3.83E-06
479.8467	0.00464
480.06945	0.00111
480.2922	0.0036
480.51497	0.00166
480.73776	0.00147
480.96056	0.00114
481.18337	0.0027
481.40619	9.26E-04
481.62903	0.00129
481.85188	-8.43E-04
482.07475	0.00203
482.29763	0.00201
482.52052	0.00199
482.74342	0.00196
482.96634	0.00194
483.18928	0.00192
483.41222	0.00189
483.63518	0.00187
483.85815	0.00184
484.08114	0.00182
484.30414	0.0018
484.52715	0.00177
484.75018	0.00175
484.97322	0.00173
485.19628	0.0017
485.41934	0.00168
485.64242	0.00166
485.86552	0.00163
486.08863	0.00161
486.31175	0.00158
486.53488	0.00156
486.75803	0.00154
486.98119	0.00151
487.20437	0.00149
487.42756	0.00147
487.65076	0.00144
487.87397	0.00142
488.0972	0.0014
488.32044	0.00137
488.5437	0.00135
488.76697	0.00132
488.99025	0.0013
489.21354	0.0013
489.43685	-1.34E-04
489.66018	0.00126
489.88351	-2.79E-04
490.10686	-4.65E-04
490.33022	0.00151
490.5536	0.00194
490.77699	1.11E-04
491.00039	0.00115
491.22381	1.89E-05
491.44724	0.00204
491.67068	4.79E-04
491.89413	0.00277
492.1176	0.00117
492.34109	0.0027
492.56458	8.54E-04
492.78809	0.00141
493.01161	9.68E-04
493.23515	-3.62E-04
493.4587	0.00204
493.68226	0.00183
493.90584	2.29E-04
494.12943	0.00185
494.35303	-9.57E-06
494.57664	0.0017
494.80027	0.00186
495.02391	9.79E-04
495.24757	5.11E-04
495.47124	0.0022
495.69492	8.54E-04
495.91862	0.00128
496.14232	-1.34E-04
496.36605	1.93E-04
496.58978	0.00217
496.81353	0.00119
497.03729	0.00108
497.26107	0.00197
497.48485	3.24E-04
497.70866	0.00244
497.93247	0.00136
498.1563	0.00227
498.38014	5.95E-04
498.60399	0.00214
498.82786	-6.18E-04
499.05174	0.00227
499.27564	0.00114
499.49954	0.00274
499.72346	1.99E-04
499.9474	8.52E-04
500.17134	0.00217
500.3953	0.00197
500.61928	0.00183
500.84326	0.00188
501.06726	6.04E-04
501.29127	0.00128
501.5153	1.14E-04
501.73934	0.00285
501.96339	0.00109
502.18745	0.00153
502.41153	0.00241
502.63562	0.0023
502.85973	0.00156
503.08385	0.00329
503.30798	9.58E-04
503.53212	0.00242
503.75628	0.00156
503.98045	0.00257
504.20463	0.00216
504.42883	0.0027
504.65304	0.00155
504.87726	0.00311
505.1015	0.00126
505.32575	0.00264
505.55001	0.00229
505.77428	0.00306
505.99857	0.00179
506.22287	0.00327
506.44719	0.00206
506.67151	0.00222
506.89585	0.0026
507.12021	0.0032
507.34457	0.00233
507.56895	0.00219
507.79335	0.00233
508.01775	0.00433
508.24217	0.00283
508.4666	0.00374
508.69105	0.0024
508.91551	0.00358
509.13998	0.00373
509.36446	0.00458
509.58896	0.00232
509.81347	0.00413
510.03799	0.00257
510.26253	0.00361
510.48708	0.00318
510.71164	0.00455
510.93621	0.00397
511.1608	0.00512
511.3854	0.00448
511.61002	0.00493
511.83464	0.00467
512.05928	0.00525
512.28394	0.00512
512.5086	0.00571
512.73328	0.00538
512.95797	0.00543
513.18268	0.00409
513.4074	0.0066
513.63213	0.00602
513.85687	0.00661
514.08163	0.00528
514.3064	0.0047
514.53118	0.00598
514.75597	0.00721
514.98078	0.00687
515.2056	0.00837
515.43044	0.0074
515.65529	0.00828
515.88015	0.00635
516.10502	0.00966
516.3299	0.00461
516.5548	0.00876
516.77972	0.00637
517.00464	0.01009
517.22958	0.00855
517.45453	0.01053
517.67949	0.00836
517.90447	0.00999
518.12946	0.01025
518.35446	0.01214
518.57947	0.00998
518.8045	0.01231
519.02954	0.01098
519.25459	0.0124
519.47966	0.01177
519.70474	0.01326
519.92983	0.01114
520.15493	0.01409
520.38005	0.01401
520.60518	0.0142
520.83033	0.01315
521.05548	0.01566
521.28065	0.01471
521.50583	0.01485
521.73103	0.01662
521.95623	0.01385
522.18145	0.01823
522.40669	0.01711
522.63193	0.01907
522.85719	0.01868
523.08246	0.01734
523.30774	0.02074
523.53304	0.02099
523.75835	0.02054
523.98367	0.02087
524.20901	0.02084
524.43436	0.02539
524.65972	0.02397
524.88509	0.02526
525.11048	0.02418
525.33587	0.02464
525.56129	0.026
525.78671	0.02679
526.01215	0.02584
526.2376	0.02833
526.46306	0.02913
526.68853	0.03081
526.91402	0.02946
527.13952	0.03079
527.36504	0.0302
527.59056	0.03069
527.8161	0.03252
528.04165	0.03393
528.26722	0.0342
528.49279	0.03657
528.71838	0.03575
528.94398	0.03735
529.1696	0.0365
529.39523	0.04031
529.62087	0.04024
529.84652	0.0412
530.07218	0.04171
530.29786	0.04361
530.52355	0.04569
530.74926	0.04695
530.97497	0.04623
531.2007	0.05039
531.42644	0.04905
531.6522	0.05121
531.87796	0.04829
532.10374	0.05451
532.32953	0.05374
532.55534	0.05406
532.78116	0.05356
533.00698	0.0569
533.23283	0.05672
533.45868	0.05765
533.68455	0.05822
533.91043	0.06114
534.13632	0.06158
534.36223	0.06436
534.58815	0.06368
534.81408	0.06568
535.04002	0.06713
535.26597	0.06857
535.49194	0.07081
535.71792	0.07188
535.94392	0.07575
536.16992	0.07776
536.39594	0.07736
536.62197	0.08011
536.84801	0.08243
537.07407	0.08437
537.30014	0.08395
537.52622	0.08882
537.75231	0.08888
537.97842	0.09214
538.20454	0.09237
538.43067	0.09679
538.65681	0.09896
538.88297	0.10133
539.10914	0.10362
539.33532	0.10294
539.56151	0.10724
539.78772	0.11134
540.01394	0.11285
540.24017	0.1135
540.46641	0.11753
540.69267	0.12024
540.91893	0.12059
541.14522	0.12527
541.37151	0.12618
541.59781	0.1314
541.82413	0.13072
542.05046	0.13457
542.27681	0.1374
542.50316	0.14029
542.72953	0.13989
542.95591	0.14495
543.1823	0.14602
543.40871	0.15025
543.63513	0.1493
543.86156	0.15751
544.088	0.16049
544.31445	0.16586
544.54092	0.16668
544.7674	0.17314
544.99389	0.17486
545.2204	0.17698
545.44691	0.18054
545.67344	0.18382
545.89999	0.18705
546.12654	0.19055
546.35311	0.19376
546.57968	0.19713
546.80628	0.20093
547.03288	0.20437
547.2595	0.20711
547.48612	0.21265
547.71276	0.21714
547.93942	0.22027
548.16608	0.22287
548.39276	0.22636
548.61945	0.22923
548.84615	0.23448
549.07287	0.23577
549.29959	0.24187
549.52633	0.24447
549.75308	0.24979
549.97985	0.25489
550.20662	0.26218
550.43341	0.26482
550.66021	0.26997
550.88703	0.26912
551.11385	0.27874
551.34069	0.28129
551.56754	0.286
551.7944	0.29005
552.02128	0.29687
552.24816	0.3003
552.47506	0.30606
552.70197	0.3115
552.9289	0.31858
553.15583	0.32066
553.38278	0.32938
553.60974	0.3322
553.83671	0.33883
554.0637	0.34165
554.29069	0.34812
554.5177	0.35291
554.74473	0.358
554.97176	0.36383
555.1988	0.36879
555.42586	0.37434
555.65293	0.37958
555.88002	0.38431
556.10711	0.39153
556.33422	0.39335
556.56134	0.40058
556.78847	0.40247
557.01561	0.40859
557.24277	0.4134
557.46993	0.42026
557.69711	0.42666
557.92431	0.43032
558.15151	0.43253
558.37873	0.43869
558.60596	0.44295
558.8332	0.45067
559.06045	0.45345
559.28771	0.45961
559.51499	0.46373
559.74228	0.46992
559.96958	0.47425
560.1969	0.47968
560.42422	0.48243
560.65156	0.48598
560.87891	0.48959
561.10627	0.49561
561.33365	0.50186
561.56103	0.51167
561.78843	0.51491
562.01584	0.5223
562.24326	0.52784
562.4707	0.53544
562.69815	0.5385
562.9256	0.54626
563.15308	0.54969
563.38056	0.55807
563.60805	0.5642
563.83556	0.57278
564.06308	0.57584
564.29061	0.58187
564.51815	0.58599
564.74571	0.59562
564.97328	0.60309
565.20086	0.61213
565.42845	0.61631
565.65605	0.62329
565.88367	0.63123
566.11129	0.63431
566.33893	0.63511
566.56659	0.6428
566.79425	0.64867
567.02192	0.6575
567.24961	0.66327
567.47731	0.67106
567.70502	0.67264
567.93275	0.67676
568.16048	0.67691
568.38823	0.67874
568.61599	0.68353
568.84376	0.68756
569.07155	0.68757
569.29934	0.69627
569.52715	0.70463
569.75497	0.70618
569.9828	0.70447
570.21064	0.70872
570.4385	0.71042
570.66636	0.71562
570.89424	0.71822
571.12213	0.72441
571.35004	0.73094
571.57795	0.7368
571.80588	0.74178
572.03382	0.74739
572.26177	0.75207
572.48973	0.75519
572.71771	0.75895
572.94569	0.7606
573.17369	0.76529
573.4017	0.77577
573.62972	0.78138
573.85776	0.78712
574.0858	0.7902
574.31386	0.79586
574.54193	0.8004
574.77001	0.80273
574.99811	0.80731
575.22621	0.81408
575.45433	0.81667
575.68246	0.82038
575.9106	0.828
576.13875	0.8286
576.36692	0.8349
576.59509	0.84057
576.82328	0.84691
577.05148	0.8505
577.27969	0.85122
577.50792	0.85723
577.73615	0.85519
577.9644	0.86263
578.19266	0.86267
578.42093	0.86808
578.64921	0.86547
578.87751	0.87677
579.10581	0.87911
579.33413	0.88031
579.56246	0.88137
579.7908	0.88816
580.01916	0.88618
580.24752	0.88779
580.4759	0.89117
580.70429	0.88905
580.93269	0.89645
581.1611	0.8993
581.38952	0.90673
581.61796	0.90794
581.84641	0.91206
582.07487	0.91823
582.30334	0.92184
582.53182	0.92226
582.76032	0.93266
582.98882	0.93726
583.21734	0.93785
583.44587	0.94484
583.67441	0.95512
583.90297	0.95399
584.13153	0.959
584.36011	0.9609
584.58869	0.96325
584.81729	0.96376
585.04591	0.96367
585.27453	0.96282
585.50317	0.96154
585.73181	0.96211
585.96047	0.96129
586.18914	0.96615
586.41782	0.97344
586.64652	0.97221
586.87522	0.97825
587.10394	0.97452
587.33267	0.97693
587.56141	0.97658
587.79016	0.97822
588.01892	0.97721
588.2477	0.97614
588.47648	0.97827
588.70528	0.98159
588.93409	0.98042
589.16291	0.9865
589.39175	0.98383
589.62059	0.98773
589.84945	0.98883
590.07831	0.99125
590.30719	0.99463
590.53609	0.9972
590.76499	0.99463
590.9939	0.99659
591.22283	0.99227
591.45177	1
591.68072	0.99976
591.90968	0.99864
592.13865	0.99778
592.36763	0.99323
592.59663	0.99039
592.82563	0.98892
593.05465	0.99051
593.28368	0.99569
593.51272	0.99419
593.74178	0.99563
593.97084	0.99243
594.19992	0.99253
594.42901	0.98632
594.65811	0.98246
594.88722	0.97895
595.11634	0.97828
595.34547	0.98157
595.57462	0.98285
595.80377	0.98641
596.03294	0.98936
596.26212	0.98939
596.49131	0.98834
596.72052	0.98542
596.94973	0.98556
597.17896	0.98016
597.40819	0.98282
597.63744	0.98051
597.8667	0.98191
598.09597	0.98296
598.32526	0.98614
598.55455	0.9872
598.78386	0.9892
599.01318	0.98689
599.2425	0.98213
599.47185	0.97907
599.7012	0.98315
599.93056	0.97693
600.15993	0.97877
600.38932	0.972
600.61872	0.9771
600.84813	0.9779
601.07755	0.97643
601.30698	0.9751
601.53642	0.97305
601.76588	0.97067
601.99534	0.97018
602.22482	0.96449
602.45431	0.96706
602.68381	0.96363
602.91332	0.96254
603.14284	0.95854
603.37238	0.95637
603.60192	0.95535
603.83148	0.95319
604.06105	0.95078
604.29063	0.94957
604.52022	0.94947
604.74982	0.94474
604.97944	0.94126
605.20906	0.9386
605.4387	0.94188
605.66835	0.9426
605.898	0.93943
606.12768	0.9381
606.35736	0.93293
606.58705	0.93183
606.81675	0.92954
607.04647	0.92798
607.2762	0.92678
607.50594	0.92904
607.73569	0.92265
607.96545	0.92211
608.19522	0.91516
608.425	0.91437
608.6548	0.90981
608.8846	0.9051
609.11442	0.90251
609.34425	0.90711
609.57409	0.90311
609.80394	0.89917
610.0338	0.89349
610.26368	0.89337
610.49356	0.88807
610.72346	0.88928
610.95336	0.88168
611.18328	0.88484
611.41321	0.88047
611.64315	0.8771
611.87311	0.87501
612.10307	0.87098
612.33304	0.86736
612.56303	0.86413
612.79303	0.86114
613.02304	0.86074
613.25306	0.85737
613.48309	0.85672
613.71313	0.85151
613.94318	0.85199
614.17325	0.84809
614.40332	0.84431
614.63341	0.84045
614.86351	0.8393
615.09362	0.83753
615.32374	0.83239
615.55387	0.82393
615.78401	0.82546
616.01416	0.82494
616.24433	0.81512
616.4745	0.82101
616.70469	0.82396
616.93489	0.81228
617.1651	0.81968
617.39532	0.81111
617.62555	0.80381
617.85579	0.79811
618.08605	0.81159
618.31631	0.79124
618.54659	0.79575
618.77688	0.79362
619.00717	0.79582
619.23748	0.78042
619.4678	0.78975
619.69814	0.78397
619.92848	0.77083
620.15883	0.77266
620.3892	0.77875
620.61957	0.76809
620.84996	0.7659
621.08036	0.75324
621.31077	0.76177
621.54119	0.75763
621.77162	0.76193
622.00206	0.74573
622.23252	0.74698
622.46298	0.74518
622.69345	0.74453
622.92394	0.73914
623.15444	0.73706
623.38495	0.73308
623.61547	0.73001
623.846	0.72515
624.07654	0.72323
624.30709	0.73239
624.53766	0.72297
624.76823	0.71034
624.99882	0.71371
625.22941	0.71102
625.46002	0.70894
625.69064	0.70547
625.92127	0.70345
626.15191	0.69728
626.38256	0.69687
626.61322	0.69332
626.8439	0.69565
627.07458	0.69109
627.30528	0.67723
627.53598	0.67858
627.7667	0.68163
627.99743	0.67662
628.22817	0.67548
628.45892	0.66936
628.68968	0.66404
628.92045	0.67101
629.15123	0.6566
629.38203	0.66147
629.61283	0.6529
629.84365	0.64896
630.07447	0.6472
630.30531	0.64982
630.53616	0.64802
630.76702	0.63784
630.99789	0.63741
631.22877	0.64039
631.45966	0.63452
631.69057	0.62851
631.92148	0.6273
632.1524	0.6182
632.38334	0.62697
632.61429	0.6149
632.84524	0.61409
633.07621	0.6081
633.30719	0.60536
633.53818	0.60752
633.76918	0.60126
634.00019	0.59009
634.23121	0.60078
634.46225	0.58698
634.69329	0.58588
634.92435	0.58485
635.15541	0.58521
635.38649	0.5791
635.61758	0.57525
635.84867	0.57805
636.07978	0.56982
636.3109	0.56339
636.54203	0.56004
636.77317	0.55827
637.00433	0.5582
637.23549	0.55236
637.46666	0.55472
637.69785	0.54558
637.92904	0.54374
638.16025	0.54186
638.39146	0.5357
638.62269	0.53405
638.85393	0.51965
639.08518	0.52377
639.31644	0.51367
639.54771	0.5162
639.77899	0.51125
640.01028	0.50707
640.24159	0.50432
640.4729	0.49802
640.70422	0.49791
640.93556	0.4933
641.1669	0.49074
641.39826	0.48483
641.62963	0.48599
641.86101	0.48228
642.09239	0.47265
642.32379	0.47145
642.5552	0.47131
642.78662	0.46802
643.01805	0.46208
643.2495	0.46206
643.48095	0.46399
643.71241	0.46204
643.94389	0.45477
644.17537	0.44902
644.40687	0.44944
644.63837	0.44451
644.86989	0.44546
645.10142	0.44133
645.33295	0.43818
645.5645	0.43401
645.79606	0.43092
646.02763	0.42919
646.25921	0.42313
646.4908	0.41925
646.7224	0.41744
646.95402	0.4152
647.18564	0.41612
647.41727	0.41019
647.64892	0.41023
647.88057	0.41055
648.11224	0.40404
648.34391	0.40631
648.5756	0.40561
648.8073	0.39915
649.03901	0.3928
649.27072	0.39429
649.50245	0.39052
649.73419	0.38931
649.96594	0.38895
650.1977	0.38861
650.42947	0.38304
650.66126	0.38091
650.89305	0.37913
651.12485	0.37931
651.35666	0.3765
651.58849	0.37375
651.82032	0.37066
652.05217	0.36865
652.28402	0.36653
652.51589	0.3644
652.74776	0.36228
652.97965	0.36016
653.21155	0.35803
653.44346	0.35591
653.67538	0.35379
653.90731	0.35166
654.13924	0.34954
654.37119	0.34742
654.60316	0.34529
654.83513	0.34317
655.06711	0.34105
655.2991	0.33893
655.5311	0.3368
655.76312	0.33468
655.99514	0.33256
656.22717	0.33043
656.45922	0.32831
656.69127	0.32619
656.92334	0.32406
657.15541	0.32194
657.3875	0.31982
657.61959	0.31769
657.8517	0.31557
658.08382	0.31345
658.31595	0.31132
658.54809	0.3092
658.78023	0.30708
659.01239	0.30495
659.24456	0.30283
659.47674	0.30071
659.70893	0.29858
659.94113	0.29646
660.17334	0.29646
660.40557	0.2956
660.6378	0.29383
660.87004	0.29144
661.10229	0.2915
661.33455	0.28683
661.56683	0.2847
661.79911	0.28361
662.03141	0.27844
662.26371	0.27724
662.49603	0.27625
662.72835	0.27348
662.96069	0.27536
663.19303	0.27309
663.42539	0.26419
663.65775	0.27159
663.89013	0.26626
664.12252	0.26307
664.35492	0.26064
664.58732	0.26113
664.81974	0.25913
665.05217	0.25536
665.28461	0.25417
665.51706	0.25206
665.74952	0.25294
665.98199	0.25181
666.21447	0.25091
666.44696	0.24627
666.67946	0.2442
666.91197	0.24333
667.14449	0.24089
667.37702	0.23969
667.60956	0.23777
667.84211	0.23586
668.07467	0.23492
668.30725	0.23334
668.53983	0.23155
668.77242	0.22936
669.00502	0.22808
669.23764	0.22589
669.47026	0.22455
669.7029	0.22366
669.93554	0.22282
670.16819	0.21919
670.40086	0.21833
670.63353	0.21582
670.86622	0.21263
671.09891	0.21282
671.33162	0.21196
671.56433	0.21122
671.79706	0.20839
672.02979	0.20889
672.26254	0.20499
672.4953	0.20459
672.72806	0.20232
672.96084	0.20138
673.19362	0.20032
673.42642	0.19826
673.65923	0.19651
673.89205	0.19562
674.12487	0.19415
674.35771	0.19158
674.59056	0.19057
674.82342	0.18991
675.05628	0.18707
675.28916	0.18625
675.52205	0.18288
675.75495	0.1853
675.98786	0.18471
676.22077	0.18305
676.4537	0.1798
676.68664	0.17884
676.91959	0.17703
677.15255	0.17661
677.38552	0.17344
677.6185	0.17346
677.85149	0.17157
678.08449	0.17189
678.3175	0.16886
678.55051	0.16841
678.78354	0.16649
679.01658	0.16538
679.24963	0.1642
679.48269	0.16246
679.71576	0.1626
679.94884	0.16215
680.18193	0.15988
680.41503	0.15883
680.64814	0.15755
680.88126	0.1547
681.11439	0.15347
681.34753	0.15526
681.58068	0.15213
681.81384	0.15277
682.04701	0.14935
682.28019	0.14962
682.51338	0.14745
682.74658	0.14782
682.97979	0.14751
683.21301	0.1456
683.44624	0.14309
683.67948	0.14288
683.91273	0.14185
684.14599	0.13867
684.37926	0.13823
684.61254	0.13442
684.84583	0.13658
685.07913	0.1373
685.31244	0.13549
685.54576	0.13567
685.77909	0.13335
686.01243	0.13178
686.24578	0.13028
686.47914	0.13246
686.71251	0.12924
686.94589	0.13004
687.17928	0.1277
687.41268	0.127
687.64609	0.12235
687.87951	0.12632
688.11294	0.12386
688.34638	0.12256
688.57982	0.12104
688.81328	0.12158
689.04675	0.11889
689.28023	0.11991
689.51372	0.11932
689.74722	0.11718
689.98073	0.11725
690.21424	0.1164
690.44777	0.11272
690.68131	0.11388
690.91486	0.1126
691.14842	0.11165
691.38198	0.11071
691.61556	0.11184
691.84915	0.10874
692.08274	0.10833
692.31635	0.10781
692.54997	0.10725
692.78359	0.10608
693.01723	0.1061
693.25088	0.10398
693.48453	0.1016
693.7182	0.10281
693.95187	0.10211
694.18556	0.10045
694.41925	0.09626
694.65296	0.10022
694.88667	0.09889
695.1204	0.09648
695.35413	0.09782
695.58788	0.09728
695.82163	0.09384
696.0554	0.09367
696.28917	0.09383
696.52295	0.09333
696.75675	0.09243
696.99055	0.09184
697.22436	0.09137
697.45818	0.08865
697.69202	0.08932
697.92586	0.08833
698.15971	0.08705
698.39357	0.08734
698.62744	0.08448
698.86132	0.08477
699.09521	0.08489
699.32911	0.08221
699.56302	0.08351
699.79694	0.0825
700.03087	0.0826
700.26481	0.08144
700.49876	0.07801
700.73272	0.07895
700.96669	0.07793
701.20066	0.07728
701.43465	0.07758
701.66865	0.07535
701.90266	0.07565
702.13667	0.07584
702.3707	0.07533
702.60473	0.07567
702.83878	0.07156
703.07284	0.07306
703.3069	0.07076
703.54097	0.07316
703.77506	0.07098
704.00915	0.07107
704.24326	0.06924
704.47737	0.06902
704.71149	0.06669
704.94562	0.07034
705.17977	0.06607
705.41392	0.06726
705.64808	0.0666
705.88225	0.06715
706.11643	0.06528
706.35062	0.066
706.58482	0.06455
706.81903	0.06403
707.05325	0.06403
707.28748	0.06311
707.52171	0.06237
707.75596	0.06173
707.99022	0.05976
708.22449	0.06334
708.45876	0.06082
708.69305	0.06075
708.92734	0.05987
709.16165	0.0594
709.39596	0.05847
709.63029	0.06049
709.86462	0.05855
710.09896	0.05842
710.33332	0.05742
710.56768	0.05756
710.80205	0.0569
711.03643	0.05656
711.27082	0.05589
711.50522	0.05602
711.73963	0.05443
711.97405	0.05351
712.20848	0.05301
712.44292	0.05416
712.67737	0.05186
712.91182	0.05301
713.14629	0.05174
713.38077	0.04436
713.61525	0.05161
713.84975	0.05072
714.08425	0.04895
714.31876	0.05108
714.55329	0.04839
714.78782	0.04824
715.02236	0.04514
715.25692	0.04826
715.49148	0.04725
715.72605	0.04834
715.96063	0.04668
716.19522	0.0447
716.42982	0.04511
716.66443	0.04251
716.89904	0.04617
717.13367	0.04501
717.36831	0.04515
717.60295	0.04465
717.83761	0.04551
718.07227	0.0446
718.30695	0.04377
718.54163	0.04316
718.77633	0.04229
719.01103	0.04292
719.24574	0.0431
719.48046	0.04195
719.71519	0.04128
719.94993	0.04225
720.18468	0.03898
720.41944	0.04088
720.65421	0.04069
720.88899	0.04098
721.12377	0.03927
721.35857	0.03977
721.59337	0.03841
721.82819	0.03934
722.06301	0.03232
722.29785	0.03947
722.53269	0.03612
722.76754	0.03802
723.0024	0.03637
723.23727	0.03772
723.47216	0.03582
723.70704	0.03567
723.94194	0.03364
724.17685	0.03696
724.41177	0.03489
724.6467	0.03543
724.88163	0.03485
725.11658	0.03532
725.35153	0.03495
725.58649	0.03446
725.82147	0.03342
726.05645	0.03504
726.29144	0.033
726.52644	0.03352
726.76145	0.03223
726.99647	0.03278
727.2315	0.03091
727.46654	0.03232
727.70158	0.0314
727.93664	0.03254
728.17171	0.03114
728.40678	0.03263
728.64187	0.03068
728.87696	0.03116
729.11206	0.03016
729.34717	0.03114
729.58229	0.03004
729.81742	0.02922
730.05256	0.02876
730.28771	0.02874
730.52287	0.0288
730.75804	0.02915
730.99321	0.02422
731.2284	0.02944
731.46359	0.02654
731.69879	0.02807
731.93401	0.02725
732.16923	0.02838
732.40446	0.02589
732.6397	0.02827
732.87495	0.02658
733.11021	0.02643
733.34547	0.02561
733.58075	0.02651
733.81604	0.02603
734.05133	0.02599
734.28664	0.02516
734.52195	0.02459
734.75727	0.02357
734.9926	0.02568
735.22794	0.02361
735.46329	0.02258
735.69865	0.02441
735.93402	0.02509
736.1694	0.02389
736.40478	0.02353
736.64018	0.02335
736.87558	0.0235
737.111	0.0231
737.34642	0.0207
737.58185	0.02197
737.81729	0.02266
738.05274	0.02211
738.2882	0.0222
738.52367	0.02149
738.75914	0.02317
738.99463	0.02154
739.23012	0.02311
739.46563	0.02142
739.70114	0.02061
739.93666	0.02006
740.17219	0.02184
740.40773	0.02077
740.64328	0.02008
740.87884	0.02064
741.11441	0.02087
741.34998	0.01933
741.58557	0.02007
741.82116	0.01941
742.05676	0.02029
742.29238	0.01965
742.528	0.02015
742.76363	0.01958
742.99927	0.01964
743.23491	0.01885
743.47057	0.01901
743.70624	0.01664
743.94191	0.01875
744.1776	0.0182
744.41329	0.01825
744.64899	0.01782
744.8847	0.01823
745.12042	0.01734
745.35615	0.01826
745.59189	0.01722
745.82763	0.0168
746.06339	0.01677
746.29915	0.01746
746.53493	0.0162
746.77071	0.01773
747.0065	0.01647
747.2423	0.01592
747.47811	0.01575
747.71393	0.01649
747.94975	0.01604
748.18559	0.01733
748.42143	0.01485
748.65728	0.01537
748.89315	0.0151
749.12902	0.01512
749.3649	0.01568
749.60079	0.01625
749.83668	0.01385
750.07259	0.01656
750.30851	0.01333
750.54443	0.01372
750.78036	0.01505
751.0163	0.01596
751.25226	0.01346
751.48821	0.01543
751.72418	0.01346
751.96016	0.01365
752.19615	0.01373
752.43214	0.01203
752.66814	0.01298
752.90416	0.01551
753.14018	0.01275
753.37621	0.01343
753.61225	0.01277
753.8483	0.01419
754.08435	0.01134
754.32042	0.01247
754.55649	0.01335
754.79257	0.0108
755.02867	0.01272
755.26477	0.01189
755.50087	0.01194
755.73699	0.0131
755.97312	0.01219
756.20925	0.01198
756.4454	0.01033
756.68155	0.01292
756.91771	0.01178
757.15388	0.01071
757.39006	0.01179
757.62625	0.00988
757.86245	0.01134
758.09865	0.01237
758.33487	0.01023
758.57109	0.01013
758.80732	0.01112
759.04356	0.01061
759.27981	0.0114
759.51607	0.00844
759.75233	0.01126
759.98861	0.01047
760.22489	0.0108
760.46118	0.00968
760.69748	0.01108
760.93379	0.01005
761.17011	0.01084
761.40644	0.0106
761.64278	0.00923
761.87912	0.01017
762.11547	0.01056
762.35183	0.00899
762.5882	0.0104
762.82458	0.00944
763.06097	0.0104
763.29737	0.0082
763.53377	0.00981
763.77019	0.00995
764.00661	0.01062
764.24304	0.00783
764.47948	0.00963
764.71593	0.00867
764.95238	0.00963
765.18885	0.00803
765.42532	0.00976
765.6618	0.00555
765.89829	0.00982
766.13479	0.00884
766.3713	0.00856
766.60782	0.00793
766.84434	0.00921
767.08088	0.00801
767.31742	0.00921
767.55397	0.0081
767.79053	0.00809
768.0271	0.00653
768.26367	0.00969
768.50026	0.00813
768.73685	0.00917
768.97346	0.00755
769.21007	0.00876
769.44669	0.00707
769.68331	0.0086
769.91995	0.00646
770.15659	0.00776
770.39325	0.00722
770.62991	0.00826
770.86658	0.00304
771.10326	0.0068
771.33995	0.00721
771.57664	0.00821
771.81335	0.00719
772.05006	0.00438
772.28678	0.00749
772.52351	0.00736
772.76025	0.00608
772.997	0.00753
773.23375	0.007
773.47052	0.0083
773.70729	0.00416
773.94407	0.00741
774.18086	0.00626
774.41765	0.00648
774.65446	0.00533
774.89127	0.00788
775.1281	0.00548
775.36493	0.00656
775.60177	0.00644
775.83862	0.00413
776.07547	0.00477
776.31234	0.00691
776.54921	0.00441
776.78609	0.00634
777.02298	0.00644
777.25988	0.00644
777.49679	0.00429
777.7337	0.00743
777.97063	0.00495
778.20756	0.00714
778.4445	0.00493
778.68145	0.00618
778.91841	0.00492
779.15537	0.00695
779.39235	0.00558
779.62933	0.00613
779.86632	0.00404
780.10332	0.00777
780.34033	0.00592
780.57734	0.00423
780.81437	0.00393
781.0514	0.00164
781.28844	0.00589
781.52549	0.00633
781.76255	0.00442
781.99961	0.00611
782.23669	0.00347
782.47377	0.0071
782.71086	0.00562
782.94796	0.00623
783.18507	0.0059
783.42218	0.00618
783.6593	0.00457
783.89644	0.00469
784.13358	0.00298
784.37073	0.00522
784.60788	0.00441
784.84505	0.0069
785.08222	0.00299
785.3194	0.0059
785.55659	0.00451
785.79379	0.00509
786.031	0.0038
786.26821	0.00615
786.50544	0.00183
786.74267	0.00533
786.97991	0.00422
787.21716	0.00622
787.45441	0.00259
787.69168	0.0041
787.92895	0.00295
788.16623	0.00602
788.40352	0.00358
788.64081	0.00583
788.87812	0.0015
789.11543	0.00493
789.35275	0.00473
789.59008	0.00599
789.82742	0.00368
790.06477	0.00502
790.30212	0.00352
790.53949	0.00296
790.77686	0.00328
791.01424	0.00548
791.25162	0.00304
791.48902	0.00542
791.72642	0.00375
791.96383	0.00449
792.20125	0.00273
792.43868	0.00394
792.67612	0.00162
792.91356	0.00361
793.15101	0.00381
793.38847	0.00416
793.62594	0.00207
793.86342	0.00287
794.1009	0.00299
794.3384	0.00361
794.5759	0.00354
794.81341	0.00268
795.05092	0.00182
795.28845	0.00527
795.52598	0.00352
795.76352	0.0036
796.00107	0.00266
796.23863	0.00471
796.4762	0.00231
796.71377	0.00542
796.95135	0.00421
797.18894	0.00517
797.42654	0.00315
797.66415	1.84E-04
797.90176	0.00255
798.13938	0.00368
798.37701	0.00126
798.61465	0.00412
798.8523	0.00266
799.08995	0.00341
799.32761	7.89E-04
799.56528	0.00349
799.80296	0.00253
800.04065	0.00473
800.27834	4.92E-04
800.51605	0.0024
800.75376	0.00152
800.99147	0.00303
801.2292	0.00286
801.46694	0.00282
801.70468	0.00192
801.94243	0.00308
802.18019	0.00274
802.41795	0.00307
802.65573	0.00315
802.89351	0.00434
803.1313	0.00267
803.3691	0.00504
803.6069	0.00276
803.84472	0.00416
804.08254	0.00265
804.32037	0.00314
804.55821	0.00198
804.79605	0.00462
805.03391	7.06E-04
805.27177	0.00398
805.50964	1.37E-03
805.74752	0.00135
805.9854	0.00274
806.2233	0.00364
806.4612	0.00114
806.69911	0.00163
806.93702	0.00262
807.17495	0.00206
807.41288	1.22E-03
807.65082	0.00302
807.88877	0.00219
808.12673	0.00191
808.36469	0.00234
808.60266	0.00364
808.84064	-1.93E-03
809.07863	0.00199
809.31663	8.72E-04
809.55463	0.00342
809.79264	2.11E-03
810.03066	0.00478
810.26869	0.00118
810.50672	0.0032
810.74477	0.00301
810.98282	0.00299
811.22088	1.37E-03
811.45894	0.00185
811.69702	2.49E-03
811.9351	0.00294
812.17319	0.00128
812.41129	0.00265
812.64939	0.00178
812.88751	0.00311
813.12563	0.00194
813.36376	0.0028
813.60189	9.52E-04
813.84004	0.00317
814.07819	4.19E-04
814.31635	0.00385
814.55452	1.91E-03
814.79269	0.0046
815.03088	0.00131
815.26907	0.00281
815.50727	4.26E-04
815.74547	0.00208
815.98369	1.34E-03
816.22191	0.0028
816.46014	-7.52E-04
816.69838	0.00161
816.93662	0.00106
817.17488	0.00339
817.41314	-9.33E-04
817.65141	0.00333
817.88968	0.00137
818.12797	0.0031
818.36626	9.89E-04
818.60456	0.00205
818.84286	5.31E-04
819.08118	0.00215
819.3195	0.00374
819.55783	1.40E-03
819.79617	0.00307
820.03451	-4.31E-06
820.27287	0.00191
820.51123	5.26E-05
820.7496	0.00327
820.98797	-2.39E-04
821.22636	0.0026
821.46475	1.49E-03
821.70315	0.00225
821.94155	0.00124
822.17997	0.00261
822.41839	2.06E-06
822.65682	0.00361
822.89526	-6.18E-04
823.1337	0.00151
823.37216	-4.29E-06
823.61062	0.00169
823.84908	7.17E-04
824.08756	0.00271
824.32604	0.00211
824.56453	0.00233
824.80303	-6.42E-04
825.04154	0.00237
825.28005	-2.38E-04
825.51857	0.00223
825.7571	7.15E-04
825.99564	0.00223
826.23418	0.00153
826.47273	0.00241
826.71129	-5.47E-05
826.94986	0.00139
827.18843	1.45E-03
827.42701	0.00318
827.6656	1.09E-03
827.9042	-4.81E-04
828.1428	1.12E-03
828.38141	0.0021
828.62003	2.09E-05
828.85866	0.00208
829.0973	4.08E-04
829.33594	0.00282
829.57459	2.70E-04
829.81324	0.00181
830.05191	2.44E-04
830.29058	9.89E-04
830.52926	1.51E-04
830.76795	3.56E-04
831.00664	0.00208
831.24534	0.00295
831.48405	6.29E-04
831.72277	0.00166
831.96149	-6.62E-05
832.20023	0.00202
832.43897	-2.40E-04
832.67771	0.00318
832.91647	1.57E-04
833.15523	0.00246
833.394	4.79E-04
833.63277	0.00236
833.87156	-1.01E-03
834.11035	0.00153
834.34915	-6.54E-04
834.58796	0.00256
834.82677	6.40E-04
835.06559	0.00349
835.30442	-1.66E-05
835.54326	0.00216
835.7821	1.10E-03
836.02095	0.00167
836.25981	7.07E-04
836.49867	3.48E-04
836.73755	-1.05E-03
836.97643	0.00265
837.21532	6.98E-05
837.45421	0.00175
837.69311	-6.16E-04
837.93203	2.24E-03
838.17094	2.00E-04
838.40987	0.00179
838.6488	-9.82E-04
838.88774	0.00251
839.12669	5.16E-04
839.36564	0.00146
839.6046	-9.34E-04
839.84357	0.00161
840.08255	4.99E-04
840.32153	0.00203
840.56052	-1.63E-03
840.79952	0.00158
841.03853	-7.29E-05
841.27754	1.52E-04
841.51656	-2.42E-04
841.75559	0.00169
841.99462	3.46E-04
842.23367	6.65E-04
842.47272	5.91E-04
842.71177	3.09E-04
842.95084	2.53E-04
843.18991	2.41E-04
843.42899	9.63E-04
843.66807	0.00218
843.90717	1.74E-03
844.14627	1.57E-03
844.38538	6.01E-04
844.62449	0.00297
844.86361	9.00E-04
845.10274	0.00263
845.34188	2.05E-04
845.58102	0.00131
845.82018	-2.08E-04
846.05934	-1.76E-04
846.2985	0.00192
846.53767	0.00306
846.77685	6.37E-04
847.01604	0.00221
847.25524	-1.54E-03
847.49444	0.00171
847.73365	5.51E-04
847.97287	0.00126
848.21209	-2.58E-04
848.45132	1.82E-03
848.69056	3.67E-04
848.9298	-4.63E-06
849.16906	-0.00244
849.40832	0.00147
849.64758	-1.88E-04
849.88686	0.00103
850.12614	-1.95E-04
850.36543	1.46E-03
850.60472	2.53E-04
850.84403	0.00213
851.08334	1.38E-03
851.32265	4.01E-04
851.56198	3.75E-04
851.80131	0.002
852.04065	-1.14E-05
852.27999	1.23E-04
852.51935	-0.00138
852.75871	0.0015
852.99807	8.37E-04
853.23745	0.00185
853.47683	-1.24E-03
853.71622	1.80E-04
853.95561	-2.80E-04
854.19502	0.00112
854.43443	-1.29E-04
854.67384	8.84E-04
854.91327	9.29E-05
855.1527	0.00223
855.39214	3.68E-04
855.63158	1.57E-03
855.87103	-0.00131
856.11049	0.00348
856.34996	8.06E-05
856.58943	-9.51E-04
856.82892	-0.0017
857.0684	3.20E-04
857.3079	-3.46E-04
857.5474	0.00236
857.78691	1.17E-03
858.02642	0.00127
858.26595	-8.29E-04
858.50548	1.19E-03
858.74502	-5.97E-04
858.98456	5.15E-04
859.22411	-9.53E-04
859.46367	1.44E-03
859.70323	3.03E-04
859.94281	1.60E-03
860.18239	1.01E-03
860.42197	0.00259
860.66156	4.23E-04
860.90116	0.00196
861.14077	7.98E-04
861.38039	9.73E-04
861.62001	-2.94E-04
861.85964	0.00117
862.09927	0.00176
862.33891	0.00212
862.57856	-0.00259
862.81822	0.00122
863.05788	-7.87E-04
863.29755	-8.63E-05
863.53723	-2.93E-03
863.77691	0.00241
864.0166	-3.51E-04
864.2563	-8.40E-04
864.49601	-1.72E-03
864.73572	6.02E-04
864.97544	1.01E-03
865.21516	6.66E-04
865.45489	5.01E-04
865.69463	0.00216
865.93438	-0.00128
866.17413	0.00271
866.41389	-0.00118
866.65366	8.95E-05
866.89343	-1.08E-03
867.13321	9.09E-04
867.373	-0.00185
867.6128	0.00106
867.8526	1.15E-05
868.09241	1.17E-05
868.33222	-0.00111
868.57204	-1.40E-04
868.81187	6.05E-04
869.05171	0.00176
869.29155	-3.68E-04
869.5314	0.00161
869.77126	-8.10E-04
870.01112	2.50E-04
870.25099	1.22E-04
870.49087	0.00131
870.73075	4.01E-04
870.97064	0.00346
871.21054	-1.89E-03
871.45044	0.00137
871.69035	-0.0025
871.93027	0.00124
872.1702	-1.11E-04
872.41013	2.18E-03
872.65007	-0.00362
872.89001	0.00116
873.12996	-1.15E-03
873.36992	-3.76E-04
873.60989	-0.00119
873.84986	0.00393
874.08984	7.82E-04
874.32982	0.00221
874.56982	-0.00347
874.80982	5.84E-04
875.04982	-2.78E-04
875.28983	2.25E-04
875.52985	-0.00244
875.76988	0.00118
876.00991	-1.68E-03
876.24995	1.58E-04
876.49	-1.67E-03
876.73005	1.34E-03
876.97011	-8.94E-04
877.21018	0.0023
877.45025	-0.00212
877.69033	-8.09E-04
877.93042	-5.36E-04
878.17051	8.09E-04
878.41061	-1.88E-03
878.65072	-5.09E-04
878.89084	-4.47E-04
879.13096	-1.15E-04
879.37108	-2.39E-03
879.61122	-0.00204
879.85136	1.66E-04
880.0915	0.00156
880.33166	-4.30E-03
880.57182	-8.81E-04
880.81199	6.48E-04
881.05216	-2.69E-03
881.29234	2.67E-04
881.53253	3.99E-04
881.77272	0.0025
882.01292	-3.21E-03
882.25313	0.00231
882.49334	-1.58E-03
882.73356	8.26E-04
882.97379	-0.00275
883.21402	-8.69E-04
883.45426	-2.89E-03
883.69451	0.00152
883.93476	-7.40E-04
884.17502	0.00103
884.41529	-0.00147
884.65556	0.0013
884.89584	-1.51E-03
885.13613	0.00402
885.37642	-9.96E-05
885.61672	0.00186
885.85703	1.07E-03
886.09734	-0.00184
886.33766	-0.00316
886.57799	-1.58E-04
886.81832	-0.00109
887.05866	4.11E-04
887.29901	-2.74E-03
887.53936	-8.17E-04
887.77972	-2.91E-03
888.02008	-3.28E-03
888.26045	-0.00257
888.50083	0.0016
888.74122	-2.26E-03
888.98161	5.06E-04
889.22201	-0.00233
889.46241	0.00204
889.70282	6.81E-04
889.94324	-0.00114
890.18366	-3.12E-04
890.42409	0.00102
890.66453	-0.00111
890.90497	-2.16E-03
891.14542	-5.14E-04
891.38588	0.00104
891.62634	-0.0034
891.86681	4.38E-03
892.10729	-0.00546
892.34777	-3.56E-04
892.58826	-0.00322
892.82876	0.00254
893.06926	-0.00169
893.30977	6.28E-04
893.55028	-0.00456
893.7908	0.00189
894.03133	-1.07E-03
894.27186	6.73E-04
894.51241	-0.00409
894.75295	-4.41E-04
894.99351	8.58E-04
895.23407	0.00266
895.47463	-0.00477
895.7152	0.00316
895.95578	-0.00581
896.19637	-1.12E-04
896.43696	6.78E-04
896.67756	0.00172
896.91816	-0.00193
897.15878	0.00231
897.39939	-0.00422
897.64002	5.83E-04
897.88065	-9.32E-04
898.12128	-2.32E-03
898.36193	-3.52E-04
898.60258	-2.61E-03
898.84323	-0.00142
899.08389	0.00125
899.32456	-0.0013
899.56524	0.00375
899.80592	2.61E-04
900.04661	0.00453
900.2873	-6.07E-04
900.528	0.00271
900.76871	-0.00486
901.00942	0.00332
901.25014	-0.00334
901.49087	0.00179
901.7316	-5.89E-04
901.97234	-0.00156
902.21308	-0.00247
902.45383	1.98E-03
902.69459	-9.15E-04
902.93535	0.00114
903.17612	-0.00437
903.4169	0.00377
903.65768	-0.00366
903.89847	0.00228
904.13926	-0.00143
904.38006	-9.51E-05
904.62087	-0.00141
904.86169	5.48E-04
905.10251	-0.00336
905.34333	1.25E-03
905.58416	7.25E-04
905.825	0.00147
906.06585	5.11E-04
906.3067	3.23E-04
906.54756	-0.00415
906.78842	-9.13E-04
907.02929	-0.00358
907.27017	1.35E-03
907.51105	-0.00252
907.75194	-3.48E-04
907.99283	-0.00218
908.23373	0.00378
908.47464	-0.00211
908.71555	0.00175
908.95647	-4.50E-03
909.1974	0.00162
909.43833	-0.00351
909.67927	1.65E-03
909.92021	-3.23E-03
910.16116	-0.00124
910.40212	-0.00266
910.64308	0.00209
910.88405	-0.00282
911.12503	9.58E-05
911.36601	-5.49E-03
911.607	-6.66E-04
911.84799	0.00138
912.08899	7.07E-04
912.33	-0.00624
912.57101	0.00369
912.81203	-0.00164
913.05305	2.42E-03
913.29408	-0.00351
913.53512	1.49E-03
913.77616	-0.00134
914.01721	3.03E-03
914.25827	-4.45E-04
914.49933	-0.00286
914.74039	-0.00282
914.98147	0.00171
915.22255	8.30E-05
915.46363	0.00434
915.70472	-0.00508
915.94582	9.33E-04
916.18693	-0.00521
916.42804	-4.86E-04
916.66915	-0.00101
916.91027	1.23E-03
917.1514	-0.00393
917.39254	0.00143
917.63368	-0.00462
917.87482	-2.23E-03
918.11597	-0.00185
918.35713	0.00491
918.5983	-0.00318
918.83947	2.14E-05
919.08064	-0.00472
919.32183	0.00355
919.56301	-0.00246
919.80421	-0.00234
920.04541	7.21E-04
920.28662	0.00364
920.52783	-0.00217
920.76905	5.29E-04
921.01027	-1.42E-04
921.2515	-0.00336
921.49274	0.00142
921.73398	-1.14E-05
921.97523	-0.00519
922.21648	-6.60E-04
922.45774	-2.40E-03
922.69901	4.06E-04
922.94028	-6.98E-04
923.18156	-8.82E-04
923.42285	-4.44E-03
923.66414	9.47E-04
923.90543	-0.00212
924.14673	4.95E-04
924.38804	-2.99E-04
924.62936	3.63E-03
924.87068	-0.00275
925.112	9.07E-05
925.35333	-0.00579
925.59467	0.0026
925.83602	-0.00474
926.07737	9.65E-04
926.31872	-0.00149
926.56008	-2.53E-04
926.80145	-0.00204
927.04282	0.00371
927.2842	-0.00533
927.52559	-3.93E-04
927.76698	3.88E-04
928.00837	-0.00145
928.24978	7.59E-04
928.49119	7.26E-04
928.7326	-0.00199
928.97402	-1.16E-03
929.21545	-5.91E-03
929.45688	-0.00275
929.69832	0.00141
929.93976	5.73E-03
930.18121	-0.00194
930.42267	2.12E-03
930.66413	-0.00348
930.90559	0.00123
931.14707	-0.00445
931.38855	-7.36E-04
931.63003	-0.00163
931.87152	3.23E-03
932.11302	9.17E-04
932.35452	-2.83E-03
932.59603	-0.00657
932.83754	1.35E-03
933.07906	-0.00249
933.32059	0.00105
933.56212	-0.00702
933.80365	0.00298
934.0452	-7.60E-03
934.28674	-0.00183
934.5283	-3.17E-04
934.76986	0.00251
935.01142	-0.00699
935.253	-0.00215
935.49457	-0.00782
935.73616	-0.00106
935.97774	-0.00512
936.21934	2.22E-04
936.46094	-0.00456
936.70254	-5.38E-05
936.94416	-0.00366
937.18577	-0.0011
937.4274	-0.00743
937.66903	6.73E-05
937.91066	-1.54E-03
938.1523	-5.36E-04
938.39395	-8.55E-04
938.6356	-0.00109
938.87726	-4.20E-04
939.11892	-7.86E-05
939.36059	-0.00268
939.60226	0.00263
939.84394	-0.00617
940.08563	-3.84E-05
940.32732	-0.00521
940.56902	0.00808
940.81072	-0.00811
941.05243	-0.00197
941.29414	-0.0066
941.53586	6.35E-04
941.77759	-0.0107
942.01932	-0.00117
942.26106	6.71E-04
942.5028	-0.00622
942.74455	-0.00324
942.9863	-0.0055
943.22806	5.20E-03
943.46983	0.00131
943.7116	0.00136
943.95337	-0.00278
944.19516	0.00295
944.43694	0.00661
944.67874	0.00501
944.92054	-0.00468
945.16234	0.00749
945.40415	-4.93E-03
945.64596	-0.00378
945.88779	-0.00519
946.12961	6.58E-03
946.37145	-0.00245
946.61328	0.00734
946.85513	-0.0033
947.09698	0.0066
947.33883	-0.00398
947.58069	0.00354
947.82256	-0.00373
948.06443	0.003
948.3063	-2.16E-03
948.54819	0.00342
948.79007	-3.81E-03
949.03197	0.0041
949.27387	-0.00316
949.51577	0.00721
949.75768	-0.0096
949.9996	-7.12E-03
950.24152	-0.00646
950.48344	0.00173
950.72538	2.31E-04
950.96731	1.31E-04
951.20926	-0.00613
951.45121	0.00261
951.69316	-0.00561
951.93512	0.00334
952.17708	-9.63E-03
952.41906	6.37E-03
952.66103	-0.00823
952.90301	0.00282
953.145	-0.004
953.38699	0.00314
953.62899	-0.00262
953.87099	-5.82E-04
954.113	-0.00603
954.35502	0.00275
954.59704	-0.00482
954.83906	3.27E-04
955.08109	-0.00942
955.32313	0.00192
955.56517	-9.01E-05
955.80722	0.00464
956.04927	-0.00619
956.29133	5.96E-04
956.53339	-0.00245
956.77546	0.00769
957.01753	-0.00308
957.25961	-0.00411
957.5017	-0.00718
957.74379	0.00209
957.98588	-0.00549
958.22798	5.19E-04
958.47009	-0.00558
958.7122	0.00812
958.95432	-7.11E-03
959.19644	5.47E-04
959.43857	-0.00129
959.6807	0.00128
959.92284	-4.44E-03
960.16498	3.00E-04
960.40713	-0.00705
960.64929	-0.00153
960.89145	-0.00756
961.13361	0.00679
961.37578	-0.00212
961.61796	8.90E-04
961.86014	-0.00242
962.10233	0.00521
962.34452	-0.00507
962.58671	0.00826
962.82892	-0.00318
963.07112	-0.00497
963.31334	-0.00222
963.55556	5.65E-05
963.79778	-0.00278
964.04001	-0.00436
964.28224	-0.0054
964.52448	-0.00241
964.76673	0.00314
965.00898	0.00208
965.25123	5.12E-04
965.49349	-4.99E-04
965.73576	-0.00804
965.97803	0.00354
966.22031	-0.00618
966.46259	4.67E-04
966.70488	-0.00332
966.94717	6.46E-03
967.18946	-0.00689
967.43177	0.00193
967.67408	-0.00598
967.91639	1.42E-03
968.15871	-5.33E-04
968.40103	4.73E-04
968.64336	-0.00831
968.88569	-8.72E-04
969.12803	-0.00796
969.37038	0.00496
969.61273	-0.00792
969.85508	-4.52E-03
970.09744	-0.00372
970.3398	2.71E-04
970.58218	-7.75E-03
970.82455	8.81E-04
971.06693	-0.00517
971.30932	-0.00125
971.55171	-0.00401
971.7941	0.00398
972.03651	-6.43E-03
972.27891	0.00414
972.52132	-0.00481
972.76374	0.00189
973.00616	-0.01297
973.24859	-3.20E-04
973.49102	-0.00595
973.73346	0.00707
973.9759	-0.00102
974.21835	0.0052
974.4608	-0.00353
974.70326	-2.07E-03
974.94572	-0.00453
975.18819	0.00659
975.43066	-0.00518
975.67314	-0.00259
975.91562	-0.0018
976.15811	-0.00264
976.40061	-0.00593
976.6431	-4.26E-03
976.88561	-0.00421
977.12812	-9.83E-04
977.37063	-0.01243
977.61315	0.00697
977.85567	-0.00285
978.0982	-0.00247
978.34074	-0.00593
978.58327	0.00287
978.82582	-0.00221
979.06837	5.76E-03
979.31092	-0.00648
979.55348	4.03E-04
979.79604	-5.40E-03
980.03861	0.00172
980.28119	-0.00143
980.52377	0.0021
980.76635	-0.00157
981.00894	-0.00182
981.25154	-0.00445
981.49413	-7.76E-04
981.73674	-0.00988
981.97935	0.00505
982.22196	-6.37E-03
982.46458	0.00721
982.70721	-7.81E-03
982.94983	0.0109
983.19247	-0.00623
983.43511	0.00919
983.67775	-0.00217
983.9204	0.00132
984.16306	-0.00348
984.40571	-0.00617
984.64838	-0.00832
984.89105	0.00212
985.13372	-0.0012
985.3764	0.00537
985.61908	-1.58E-04
985.86177	4.17E-04
986.10447	-0.00881
986.34716	0.00131
986.58987	-0.0087
986.83258	-1.55E-03
987.07529	-0.00672
987.31801	0.00488
987.56073	-0.00421
987.80346	-5.94E-04
988.04619	-0.00335
988.28893	-0.00355
988.53167	-1.10E-02
988.77442	-0.00403
989.01717	-0.00226
989.25993	0.00348
989.50269	-0.00407
989.74546	0.00583
989.98823	-1.17E-02
990.23101	5.09E-03
990.47379	-0.01521
990.71657	0.00755
990.95937	-0.01032
991.20216	2.04E-04
991.44496	-0.01249
991.68777	-0.00162
991.93058	-0.01486
992.17339	0.00439
992.41621	-0.00592
992.65904	5.65E-04
992.90187	-0.00592
993.1447	0.00265
993.38754	-0.01384
993.63039	0.00408
993.87324	-0.00947
994.11609	1.44E-03
994.35895	-0.00612
994.60181	0.00474
994.84468	-0.00293
995.08755	9.71E-04
995.33043	-0.00518
995.57331	0.00241
995.8162	0.00137
996.05909	0.00368
996.30199	-0.01818
996.54489	0.00779
996.7878	-4.69E-03
997.03071	-2.13E-03
997.27363	-0.00202
997.51655	0.00663
997.75947	-0.0089
998.0024	-0.00171
998.24534	-0.00486
998.48828	3.81E-04
998.73122	-0.02302
998.97417	0.00406
999.21712	-0.00574
999.46008	0.00759
999.70304	-0.01244
999.94601	-0.0054
1000.18898	-0.01498
1000.43196	-0.0021
1000.67494	-0.0025
1000.91793	5.00E-04
1001.16092	3.11E-04
1001.40392	-0.00102
1001.64692	0.00115
1001.88992	0.00186
1002.13293	-0.00645
1002.37595	0.00564
1002.61897	0.00209
1002.86199	-0.01001
1003.10502	-0.02154
1003.34805	-0.00502
1003.59109	-0.0086
1003.83413	0.00618
1004.07718	-0.00114
1004.32023	-0.00793
1004.56329	1.76E-04
1004.80635	-0.00133
1005.04941	0.01505
1005.29248	-0.01466
1005.53556	-6.43E-04
1005.77864	-0.0114
1006.02172	0.00846
1006.26481	-0.00754
1006.5079	0.00632
1006.751	-0.01159
1006.9941	0.00308
1007.23721	-0.00301
1007.48032	0.0071
1007.72344	-0.00762
1007.96656	0.00444
1008.20968	0.01095
1008.45281	0.00328
1008.69595	-0.00715
1008.93909	0.00453
1009.18223	-0.00989
1009.42538	-0.0131
1009.66853	-0.01626
1009.91169	0.00609
1010.15485	-0.0133
1010.39801	0.00812
1010.64118	-0.01468
1010.88436	0.00632
1011.12754	-0.00686
1011.37072	0.00583
1011.61391	-0.02907
1011.8571	0.01454
1012.1003	-4.47E-04
1012.3435	0.00587
1012.58671	-6.62E-04
1012.82992	0.01041
1013.07314	-0.02252
1013.31636	0.00657
1013.55958	-0.01276
1013.80281	0.00659
1014.04604	-0.02676
1014.28928	6.01E-04
1014.53252	-0.01474
1014.77577	0.00565
1015.01902	-0.01827
1015.26228	-0.00739
1015.50554	0.00278
1015.7488	0.0143
1015.99207	-0.0083
1016.23535	-0.0028
1016.47862	-0.00411
1016.72191	0.0047
1016.96519	-0.01131
1017.20848	0.00466
1017.45178	-0.01995
1017.69508	-1.67E-02
1017.93838	-0.03358
1018.18169	0.00465
1018.425	-1.09E-02
1018.66832	0.00366
1018.91164	-0.00577
1019.15497	0.01481
1019.3983	0.00242
1019.64164	0.01434
1019.88498	-0.00346
1020.12832	0.01477
1020.37167	-0.00738
1020.61502	-7.38E-04
1020.85838	-2.30E-04
1021.10174	-0.02104
1021.3451	0.00717
1021.58847	0.00178
1021.83185	-0.00898
1022.07523	0.01479
1022.31861	-0.0321
1022.562	-0.00788
1022.80539	0
1023.04878	0
1023.29218	0
1023.53559	0
1023.779	0
1024.02241	0
1024.26583	0
1024.50925	0
1024.75268	0
1024.99611	0
1025.23954	0
1025.48298	0
1025.72642	0
1025.96987	0
1026.21332	0
1026.45678	0
1026.70024	0
1026.9437	0
1027.18717	0
1027.43064	0